date,time,accX,accY,accZ,gyroX,gyroY,gyroZ,magX,magY,magZ,Trial,activity,activity_number
2019-01-14,23:20:47,5.33,0.80999994,7.4199996,0.0,0.0,0.0,0.0,0.0,0.0,4,Lying,4
2019-01-14,23:20:47,5.33,0.80999994,7.4199996,0.0,0.0,0.01,0.0,0.0,0.01,4,Lying,4
2019-01-14,23:20:47,4.89,0.83000004,7.2099996,0.0,0.0,0.01,0.0,0.0,0.01,4,Lying,4
2019-01-14,23:20:47,4.89,0.83000004,7.2099996,0.0,0.0,0.0,0.0,0.0,0.0,4,Lying,4
2019-01-14,23:20:47,5.6,0.70000005,7.8399997,0.0,0.0,0.0,0.0,0.0,0.0,4,Lying,4
2019-01-14,23:20:47,5.6,0.70000005,7.8399997,-0.04,-0.03,0.04,-0.04,-0.03,0.04,4,Lying,4
2019-01-14,23:20:47,5.5,0.78,7.6699996,-0.04,-0.03,0.04,-0.04,-0.03,0.04,4,Lying,4
2019-01-14,23:20:47,5.5,0.78,7.6699996,0.0,0.049999997000000004,0.02,0.0,0.049999997000000004,0.02,4,Lying,4
2019-01-14,23:20:47,4.9100003,0.85,7.47,0.0,0.049999997000000004,0.02,0.0,0.049999997000000004,0.02,4,Lying,4
2019-01-14,23:20:47,4.9100003,0.85,7.47,0.02,0.049999997000000004,-0.02,0.02,0.049999997000000004,-0.02,4,Lying,4
2019-01-14,23:20:47,5.12,0.83000004,7.4999994999999995,0.02,0.049999997000000004,-0.02,0.02,0.049999997000000004,-0.02,4,Lying,4
2019-01-14,23:20:47,5.12,0.83000004,7.4999994999999995,0.0,-0.03,0.0,0.0,-0.03,0.0,4,Lying,4
2019-01-14,23:20:47,5.44,0.88,7.3299994,0.0,-0.03,0.0,0.0,-0.03,0.0,4,Lying,4
2019-01-14,23:20:47,5.44,0.88,7.3299994,0.0,-0.08,0.02,0.0,-0.08,0.02,4,Lying,4
2019-01-14,23:20:47,5.32,0.65,7.68,0.0,-0.08,0.02,0.0,-0.08,0.02,4,Lying,4
2019-01-14,23:20:47,5.32,0.65,7.68,-0.01,0.03,0.0,-0.01,0.03,0.0,4,Lying,4
2019-01-14,23:20:47,5.2000003,0.76,7.66,-0.01,0.03,0.0,-0.01,0.03,0.0,4,Lying,4
2019-01-14,23:20:47,5.2000003,0.76,7.66,0.0,0.049999997000000004,0.0,0.0,0.049999997000000004,0.0,4,Lying,4
2019-01-14,23:20:47,5.09,0.87,7.41,0.0,0.049999997000000004,0.0,0.0,0.049999997000000004,0.0,4,Lying,4
2019-01-14,23:20:47,5.09,0.87,7.41,0.02,0.0,0.0,0.02,0.0,0.0,4,Lying,4
2019-01-14,23:20:47,5.4,0.81999993,7.47,0.02,0.0,0.0,0.02,0.0,0.0,4,Lying,4
2019-01-14,23:20:47,5.4,0.81999993,7.47,-0.01,-0.02,0.01,-0.01,-0.02,0.01,4,Lying,4
2019-01-14,23:20:47,5.23,0.75,7.599999400000001,-0.01,-0.02,0.01,-0.01,-0.02,0.01,4,Lying,4
2019-01-14,23:20:47,5.23,0.75,7.599999400000001,-0.02,-0.01,0.01,-0.02,-0.01,0.01,4,Lying,4
2019-01-14,23:20:47,5.33,0.79999995,7.5699997,-0.02,-0.01,0.01,-0.02,-0.01,0.01,4,Lying,4
2019-01-14,23:20:47,5.33,0.79999995,7.5699997,0.0,-0.02,0.0,0.0,-0.02,0.0,4,Lying,4
2019-01-14,23:20:47,5.2000003,0.78,7.4199996,0.0,-0.02,0.0,0.0,-0.02,0.0,4,Lying,4
2019-01-14,23:20:47,5.2000003,0.78,7.4199996,0.01,0.0,0.0,0.01,0.0,0.0,4,Lying,4
2019-01-14,23:20:47,5.37,0.9499999,7.5899997,0.01,0.0,0.0,0.01,0.0,0.0,4,Lying,4
2019-01-14,23:20:47,5.37,0.9499999,7.5899997,0.01,0.02,-0.01,0.01,0.02,-0.01,4,Lying,4
2019-01-14,23:20:48,5.42,0.85,7.7799997,0.01,0.02,-0.01,0.01,0.02,-0.01,4,Lying,4
2019-01-14,23:20:48,5.42,0.85,7.7799997,0.0,0.06,-0.01,0.0,0.06,-0.01,4,Lying,4
2019-01-14,23:20:48,4.9500003,0.71000004,7.45,0.0,0.06,-0.01,0.0,0.06,-0.01,4,Lying,4
2019-01-14,23:20:48,4.9500003,0.71000004,7.45,0.0,0.0,-0.049999997000000004,0.0,0.0,-0.049999997000000004,4,Lying,4
2019-01-14,23:20:48,5.28,0.89,7.2899994999999995,0.0,0.0,-0.049999997000000004,0.0,0.0,-0.049999997000000004,4,Lying,4
2019-01-14,23:20:48,5.28,0.89,7.2899994999999995,0.0,-0.04,-0.01,0.0,-0.04,-0.01,4,Lying,4
2019-01-14,23:20:48,5.1800003,0.78,7.6099997,0.0,-0.04,-0.01,0.0,-0.04,-0.01,4,Lying,4
2019-01-14,23:20:48,5.1800003,0.78,7.6099997,-0.01,0.049999997000000004,0.03,-0.01,0.049999997000000004,0.03,4,Lying,4
2019-01-14,23:20:48,5.4,0.71000004,7.7899994999999995,-0.01,0.049999997000000004,0.03,-0.01,0.049999997000000004,0.03,4,Lying,4
2019-01-14,23:20:48,5.4,0.71000004,7.7899994999999995,0.0,0.02,0.049999997000000004,0.0,0.02,0.049999997000000004,4,Lying,4
2019-01-14,23:20:48,4.9300003,0.78999996,7.3999996,0.0,0.02,0.049999997000000004,0.0,0.02,0.049999997000000004,4,Lying,4
2019-01-14,23:20:48,4.9300003,0.78999996,7.3999996,0.03,0.02,0.01,0.03,0.02,0.01,4,Lying,4
2019-01-14,23:20:48,5.15,0.81999993,7.5699997,0.03,0.02,0.01,0.03,0.02,0.01,4,Lying,4
2019-01-14,23:20:48,5.15,0.81999993,7.5699997,0.0,-0.04,0.03,0.0,-0.04,0.03,4,Lying,4
2019-01-14,23:20:48,5.37,0.68999994,7.68,0.0,-0.04,0.03,0.0,-0.04,0.03,4,Lying,4
2019-01-14,23:20:48,5.37,0.68999994,7.68,-0.01,-0.049999997000000004,0.03,-0.01,-0.049999997000000004,0.03,4,Lying,4
2019-01-14,23:20:48,5.35,0.77,7.74,-0.01,-0.049999997000000004,0.03,-0.01,-0.049999997000000004,0.03,4,Lying,4
2019-01-14,23:20:48,5.35,0.77,7.74,0.02,-0.06,0.01,0.02,-0.06,0.01,4,Lying,4
2019-01-14,23:20:48,5.2000003,0.70000005,7.66,0.02,-0.06,0.01,0.02,-0.06,0.01,4,Lying,4
2019-01-14,23:20:48,5.2000003,0.70000005,7.66,0.06,-0.04,0.01,0.06,-0.04,0.01,4,Lying,4
2019-01-14,23:20:48,5.06,0.75,7.39,0.06,-0.04,0.01,0.06,-0.04,0.01,4,Lying,4
2019-01-14,23:20:48,5.06,0.75,7.39,0.13,-0.13,0.01,0.13,-0.13,0.01,4,Lying,4
2019-01-14,23:20:48,5.55,0.70000005,7.0699997,0.13,-0.13,0.01,0.13,-0.13,0.01,4,Lying,4
2019-01-14,23:20:48,5.55,0.70000005,7.0699997,0.14999999,-0.21,0.04,0.14999999,-0.21,0.04,4,Lying,4
2019-01-14,23:20:48,5.59,0.90999997,6.72,0.14999999,-0.21,0.04,0.14999999,-0.21,0.04,4,Lying,4
2019-01-14,23:20:48,5.59,0.90999997,6.72,0.14,-0.28,0.02,0.14,-0.28,0.02,4,Lying,4
2019-01-14,23:20:48,6.19,1.06,7.349999400000001,0.14,-0.28,0.02,0.14,-0.28,0.02,4,Lying,4
2019-01-14,23:20:48,6.19,1.06,7.349999400000001,0.12,-0.28,0.0,0.12,-0.28,0.0,4,Lying,4
2019-01-14,23:20:48,5.02,1.35,7.41,0.12,-0.28,0.0,0.12,-0.28,0.0,4,Lying,4
2019-01-14,23:20:48,5.02,1.35,7.41,0.049999997000000004,0.22,-0.07,0.049999997000000004,0.22,-0.07,4,Lying,4
2019-01-14,23:20:48,4.65,1.28,7.24,0.049999997000000004,0.22,-0.07,0.049999997000000004,0.22,-0.07,4,Lying,4
2019-01-14,23:20:48,4.65,1.28,7.24,0.049999997000000004,0.14,-0.12,0.049999997000000004,0.14,-0.12,4,Lying,4
2019-01-14,23:20:48,5.26,1.27,6.9199996,0.049999997000000004,0.14,-0.12,0.049999997000000004,0.14,-0.12,4,Lying,4
2019-01-14,23:20:48,5.26,1.27,6.9199996,0.02,-0.09999999400000001,-0.049999997000000004,0.02,-0.09999999400000001,-0.049999997000000004,4,Lying,4
2019-01-14,23:20:48,5.4700003,1.0799999,7.2,0.02,-0.09999999400000001,-0.049999997000000004,0.02,-0.09999999400000001,-0.049999997000000004,4,Lying,4
2019-01-14,23:20:48,5.4700003,1.0799999,7.2,-0.02,-0.04,-0.03,-0.02,-0.04,-0.03,4,Lying,4
2019-01-14,23:20:48,5.2400002,1.02,7.2799997,-0.02,-0.04,-0.03,-0.02,-0.04,-0.03,4,Lying,4
2019-01-14,23:20:48,5.2400002,1.02,7.2799997,0.0,0.01,0.0,0.0,0.01,0.0,4,Lying,4
2019-01-14,23:20:48,6.04,0.66999996,7.5499997,0.0,0.01,0.0,0.0,0.01,0.0,4,Lying,4
2019-01-14,23:20:48,6.04,0.66999996,7.5499997,0.0,0.049999997000000004,0.12,0.0,0.049999997000000004,0.12,4,Lying,4
2019-01-14,23:20:48,6.08,0.65999997,7.6199994,0.0,0.049999997000000004,0.12,0.0,0.049999997000000004,0.12,4,Lying,4
2019-01-14,23:20:48,6.08,0.65999997,7.6199994,0.01,0.089999996,0.04,0.01,0.089999996,0.04,4,Lying,4
2019-01-14,23:20:48,5.4100003,0.83000004,7.3799996,0.01,0.089999996,0.04,0.01,0.089999996,0.04,4,Lying,4
2019-01-14,23:20:48,5.4100003,0.83000004,7.3799996,0.07,0.19,-0.02,0.07,0.19,-0.02,4,Lying,4
2019-01-14,23:20:49,4.9300003,1.01,7.559999499999999,0.07,0.19,-0.02,0.07,0.19,-0.02,4,Lying,4
2019-01-14,23:20:49,4.9300003,1.01,7.559999499999999,0.06,0.14999999,-0.049999997000000004,0.06,0.14999999,-0.049999997000000004,4,Lying,4
2019-01-14,23:20:49,4.62,1.4,6.87,0.06,0.14999999,-0.049999997000000004,0.06,0.14999999,-0.049999997000000004,4,Lying,4
2019-01-14,23:20:49,4.62,1.4,6.87,0.09999999400000001,0.03,-0.04,0.09999999400000001,0.03,-0.04,4,Lying,4
2019-01-14,23:20:49,5.92,1.35,7.93,0.09999999400000001,0.03,-0.04,0.09999999400000001,0.03,-0.04,4,Lying,4
2019-01-14,23:20:49,5.92,1.35,7.93,0.0,0.0,0.03,0.0,0.0,0.03,4,Lying,4
2019-01-14,23:20:49,5.1800003,1.25,7.7499994999999995,0.0,0.0,0.03,0.0,0.0,0.03,4,Lying,4
2019-01-14,23:20:49,5.1800003,1.25,7.7499994999999995,0.01,0.11,0.0,0.01,0.11,0.0,4,Lying,4
2019-01-14,23:20:49,4.73,1.31,7.4599996,0.01,0.11,0.0,0.01,0.11,0.0,4,Lying,4
2019-01-14,23:20:49,4.73,1.31,7.4599996,0.049999997000000004,0.09999999400000001,-0.03,0.049999997000000004,0.09999999400000001,-0.03,4,Lying,4
2019-01-14,23:20:49,5.01,1.29,7.1899996,0.049999997000000004,0.09999999400000001,-0.03,0.049999997000000004,0.09999999400000001,-0.03,4,Lying,4
2019-01-14,23:20:49,5.01,1.29,7.1899996,0.03,-0.08,0.0,0.03,-0.08,0.0,4,Lying,4
2019-01-14,23:20:49,5.6,0.93999994,7.2999997,0.03,-0.08,0.0,0.03,-0.08,0.0,4,Lying,4
2019-01-14,23:20:49,5.6,0.93999994,7.2999997,-0.04,-0.089999996,0.07,-0.04,-0.089999996,0.07,4,Lying,4
2019-01-14,23:20:49,5.6,0.93999994,7.2999997,-0.01,-0.01,0.03,-0.01,-0.01,0.03,4,Lying,4
2019-01-14,23:20:49,5.1600003,0.90999997,7.1499996,-0.01,-0.01,0.03,-0.01,-0.01,0.03,4,Lying,4
2019-01-14,23:20:49,5.1600003,0.90999997,7.1499996,-0.02,0.03,-0.01,-0.02,0.03,-0.01,4,Lying,4
2019-01-14,23:20:49,5.4900002,0.84000003,8.03,-0.02,0.03,-0.01,-0.02,0.03,-0.01,4,Lying,4
2019-01-14,23:20:49,5.4900002,0.84000003,8.03,-0.07,0.06,0.0,-0.07,0.06,0.0,4,Lying,4
2019-01-14,23:20:49,4.9,1.09,7.6199994,-0.07,0.06,0.0,-0.07,0.06,0.0,4,Lying,4
2019-01-14,23:20:49,4.9,1.09,7.6199994,0.049999997000000004,0.09999999400000001,-0.04,0.049999997000000004,0.09999999400000001,-0.04,4,Lying,4
2019-01-14,23:20:49,4.89,1.26,7.39,0.049999997000000004,0.09999999400000001,-0.04,0.049999997000000004,0.09999999400000001,-0.04,4,Lying,4
2019-01-14,23:20:49,4.89,1.26,7.39,0.07,0.01,-0.02,0.07,0.01,-0.02,4,Lying,4
2019-01-14,23:20:49,5.38,1.22,7.47,0.07,0.01,-0.02,0.07,0.01,-0.02,4,Lying,4
2019-01-14,23:20:49,5.38,1.22,7.47,0.03,-0.01,0.01,0.03,-0.01,0.01,4,Lying,4
2019-01-14,23:20:49,5.09,1.3199999,7.5299997,0.02,0.049999997000000004,0.0,0.02,0.049999997000000004,0.0,4,Lying,4
2019-01-14,23:20:49,5.09,1.3199999,7.5299997,0.02,0.049999997000000004,0.0,0.02,0.049999997000000004,0.0,4,Lying,4
2019-01-14,23:20:49,5.11,1.11,7.7299995,0.02,0.049999997000000004,0.0,0.02,0.049999997000000004,0.0,4,Lying,4
2019-01-14,23:20:49,5.11,1.11,7.7299995,-0.01,0.06,0.04,-0.01,0.06,0.04,4,Lying,4
2019-01-14,23:20:49,4.9700003,1.11,7.5799994,-0.01,0.06,0.04,-0.01,0.06,0.04,4,Lying,4
2019-01-14,23:20:49,4.9700003,1.11,7.5799994,0.01,0.06,0.03,0.01,0.06,0.03,4,Lying,4
2019-01-14,23:20:49,4.9100003,1.11,7.4999994999999995,0.01,0.06,0.03,0.01,0.06,0.03,4,Lying,4
2019-01-14,23:20:49,4.9100003,1.11,7.4999994999999995,0.03,0.0,0.01,0.03,0.0,0.01,4,Lying,4
2019-01-14,23:20:49,5.1,1.09,7.5399994999999995,0.03,0.0,0.01,0.03,0.0,0.01,4,Lying,4
2019-01-14,23:20:49,5.1,1.09,7.5399994999999995,0.01,-0.01,0.03,0.01,-0.01,0.03,4,Lying,4
2019-01-14,23:20:49,5.29,0.99,7.66,0.01,-0.01,0.03,0.01,-0.01,0.03,4,Lying,4
2019-01-14,23:20:49,5.29,0.99,7.66,-0.02,0.01,0.049999997000000004,-0.02,0.01,0.049999997000000004,4,Lying,4
2019-01-14,23:20:49,5.36,1.17,7.5299997,-0.02,0.01,0.049999997000000004,-0.02,0.01,0.049999997000000004,4,Lying,4
2019-01-14,23:20:49,5.36,1.17,7.5299997,0.0,-0.02,0.01,0.0,-0.02,0.01,4,Lying,4
2019-01-14,23:20:49,5.29,1.17,7.5199995,0.0,-0.02,0.01,0.0,-0.02,0.01,4,Lying,4
2019-01-14,23:20:49,5.29,1.17,7.5199995,-0.01,-0.01,0.0,-0.01,-0.01,0.0,4,Lying,4
2019-01-14,23:20:49,5.05,1.12,7.6199994,-0.01,-0.01,0.0,-0.01,-0.01,0.0,4,Lying,4
2019-01-14,23:20:49,5.05,1.12,7.6199994,0.0,0.03,0.0,0.0,0.03,0.0,4,Lying,4
2019-01-14,23:20:49,4.9700003,1.0699999,7.8799996,0.0,0.03,0.02,0.0,0.03,0.02,4,Lying,4
2019-01-14,23:20:49,4.9700003,1.0699999,7.8799996,0.0,0.03,0.02,0.0,0.03,0.02,4,Lying,4
2019-01-14,23:20:50,4.7200003,1.11,7.6899996,0.0,0.03,0.02,0.0,0.03,0.02,4,Lying,4
2019-01-14,23:20:50,4.7200003,1.11,7.6899996,0.02,-0.09999999400000001,0.0,0.02,-0.09999999400000001,0.0,4,Lying,4
2019-01-14,23:20:50,5.0,1.1,7.3799996,0.02,-0.09999999400000001,0.0,0.02,-0.09999999400000001,0.0,4,Lying,4
2019-01-14,23:20:50,5.0,1.1,7.3799996,0.08,-0.26,0.01,0.08,-0.26,0.01,4,Lying,4
2019-01-14,23:20:50,5.81,1.06,7.41,0.08,-0.26,0.01,0.08,-0.26,0.01,4,Lying,4
2019-01-14,23:20:50,5.81,1.06,7.41,0.049999997000000004,-0.29,0.049999997000000004,0.049999997000000004,-0.29,0.049999997000000004,4,Lying,4
2019-01-14,23:20:50,5.58,1.42,6.64,0.049999997000000004,-0.29,0.049999997000000004,0.049999997000000004,-0.29,0.049999997000000004,4,Lying,4
2019-01-14,23:20:50,5.58,1.42,6.64,0.17999999,-0.28,-0.049999997000000004,0.17999999,-0.28,-0.049999997000000004,4,Lying,4
2019-01-14,23:20:50,6.0,1.3199999,7.49,0.17999999,-0.28,-0.049999997000000004,0.17999999,-0.28,-0.049999997000000004,4,Lying,4
2019-01-14,23:20:50,6.0,1.3199999,7.49,0.03,0.03,0.01,0.03,0.03,0.01,4,Lying,4
2019-01-14,23:20:50,4.86,1.04,7.41,0.03,0.03,0.01,0.03,0.03,0.01,4,Lying,4
2019-01-14,23:20:50,4.86,1.04,7.41,0.02,0.13,0.0,0.02,0.13,0.0,4,Lying,4
2019-01-14,23:20:50,5.05,1.3299999,6.9799995,0.02,0.13,0.0,0.02,0.13,0.0,4,Lying,4
2019-01-14,23:20:50,5.05,1.3299999,6.9799995,0.049999997000000004,-0.07,0.0,0.049999997000000004,-0.07,0.0,4,Lying,4
2019-01-14,23:20:50,5.54,1.39,7.309999499999999,0.049999997000000004,-0.07,0.0,0.049999997000000004,-0.07,0.0,4,Lying,4
2019-01-14,23:20:50,5.54,1.39,7.309999499999999,0.0,-0.06,0.01,0.0,-0.06,0.01,4,Lying,4
2019-01-14,23:20:50,5.85,1.37,7.6099997,0.0,-0.06,0.01,0.0,-0.06,0.01,4,Lying,4
2019-01-14,23:20:50,5.85,1.37,7.6099997,-0.03,0.0,0.01,-0.03,0.0,0.01,4,Lying,4
2019-01-14,23:20:50,5.05,1.25,7.2799997,-0.03,0.0,0.01,-0.03,0.0,0.01,4,Lying,4
2019-01-14,23:20:50,5.05,1.25,7.2799997,0.06,0.08,-0.06,0.06,0.08,-0.06,4,Lying,4
2019-01-14,23:20:50,5.04,1.38,7.43,0.06,0.08,-0.06,0.06,0.08,-0.06,4,Lying,4
2019-01-14,23:20:50,5.04,1.38,7.43,0.06,0.12,-0.02,0.06,0.12,-0.02,4,Lying,4
2019-01-14,23:20:50,5.2200003,1.3199999,7.43,0.06,0.12,-0.02,0.06,0.12,-0.02,4,Lying,4
2019-01-14,23:20:50,5.2200003,1.3199999,7.43,0.03,-0.049999997000000004,-0.02,0.03,-0.049999997000000004,-0.02,4,Lying,4
2019-01-14,23:20:50,5.17,1.4599999,7.22,0.03,-0.049999997000000004,-0.02,0.03,-0.049999997000000004,-0.02,4,Lying,4
2019-01-14,23:20:50,5.17,1.4599999,7.22,0.04,-0.06,-0.02,0.04,-0.06,-0.02,4,Lying,4
2019-01-14,23:20:50,5.1,1.3299999,7.2799997,-0.04,0.0,0.03,-0.04,0.0,0.03,4,Lying,4
2019-01-14,23:20:50,5.1,1.3299999,7.2799997,-0.04,0.0,0.03,-0.04,0.0,0.03,4,Lying,4
2019-01-14,23:20:50,5.39,1.18,7.3599997,-0.04,0.0,0.03,-0.04,0.0,0.03,4,Lying,4
2019-01-14,23:20:50,5.39,1.18,7.3599997,-0.02,-0.06,0.02,-0.02,-0.06,0.02,4,Lying,4
2019-01-14,23:20:50,5.42,1.37,7.64,-0.02,-0.06,0.02,-0.02,-0.06,0.02,4,Lying,4
2019-01-14,23:20:50,5.42,1.37,7.64,0.0,0.01,0.01,0.0,0.01,0.01,4,Lying,4
2019-01-14,23:20:50,5.13,1.39,7.45,0.0,0.01,0.01,0.0,0.01,0.01,4,Lying,4
2019-01-14,23:20:50,5.13,1.39,7.45,0.049999997000000004,0.01,0.0,0.049999997000000004,0.01,0.0,4,Lying,4
2019-01-14,23:20:50,5.05,1.43,7.2799997,0.049999997000000004,0.01,0.0,0.049999997000000004,0.01,0.0,4,Lying,4
2019-01-14,23:20:50,5.05,1.43,7.2799997,0.06,0.02,0.03,0.06,0.02,0.03,4,Lying,4
2019-01-14,23:20:50,5.52,1.28,7.2499994999999995,0.03,-0.03,0.049999997000000004,0.03,-0.03,0.049999997000000004,4,Lying,4
2019-01-14,23:20:50,5.52,1.28,7.2499994999999995,0.03,-0.03,0.049999997000000004,0.03,-0.03,0.049999997000000004,4,Lying,4
2019-01-14,23:20:50,5.27,1.3299999,7.2799997,0.03,-0.03,0.049999997000000004,0.03,-0.03,0.049999997000000004,4,Lying,4
2019-01-14,23:20:50,5.27,1.3299999,7.2799997,-0.01,0.0,-0.01,-0.01,0.0,-0.01,4,Lying,4
2019-01-14,23:20:50,5.23,1.48,7.3299994,-0.01,0.0,-0.01,-0.01,0.0,-0.01,4,Lying,4
2019-01-14,23:20:50,5.23,1.48,7.3299994,-0.01,0.0,-0.03,-0.01,0.0,-0.03,4,Lying,4
2019-01-14,23:20:51,5.38,1.29,7.4799995,0.0,0.04,0.01,0.0,0.04,0.01,4,Lying,4
2019-01-14,23:20:51,5.38,1.29,7.4799995,0.0,0.04,0.01,0.0,0.04,0.01,4,Lying,4
2019-01-14,23:20:51,5.25,1.28,7.39,0.0,0.04,0.01,0.0,0.04,0.01,4,Lying,4
2019-01-14,23:20:51,5.25,1.28,7.39,0.03,0.01,0.0,0.03,0.01,0.0,4,Lying,4
2019-01-14,23:20:51,5.26,1.34,7.4999994999999995,0.01,0.049999997000000004,0.0,0.01,0.049999997000000004,0.0,4,Lying,4
2019-01-14,23:20:51,5.26,1.34,7.4999994999999995,0.01,0.049999997000000004,0.0,0.01,0.049999997000000004,0.0,4,Lying,4
2019-01-14,23:20:51,5.15,1.51,7.5499997,0.01,0.049999997000000004,0.0,0.01,0.049999997000000004,0.0,4,Lying,4
2019-01-14,23:20:51,5.15,1.51,7.5499997,0.0,-0.01,0.0,0.0,-0.01,0.0,4,Lying,4
2019-01-14,23:20:51,4.94,1.28,7.3799996,0.0,-0.01,0.0,0.0,-0.01,0.0,4,Lying,4
2019-01-14,23:20:51,4.94,1.28,7.3799996,-0.01,-0.04,0.0,-0.01,-0.04,0.0,4,Lying,4
2019-01-14,23:20:51,5.61,1.14,7.309999499999999,-0.01,-0.04,0.0,-0.01,-0.04,0.0,4,Lying,4
2019-01-14,23:20:51,5.61,1.14,7.309999499999999,-0.02,-0.12,0.04,-0.02,-0.12,0.04,4,Lying,4
2019-01-14,23:20:51,5.69,1.4,6.7899994999999995,-0.02,-0.12,0.04,-0.02,-0.12,0.04,4,Lying,4
2019-01-14,23:20:51,5.69,1.4,6.7899994999999995,0.0,-0.02,0.0,0.0,-0.02,0.0,4,Lying,4
2019-01-14,23:20:51,5.7200003,1.24,7.2,0.0,-0.02,0.0,0.0,-0.02,0.0,4,Lying,4
2019-01-14,23:20:51,5.7200003,1.24,7.2,-0.049999997000000004,0.11,-0.04,-0.049999997000000004,0.11,-0.04,4,Lying,4
2019-01-14,23:20:51,5.2000003,1.28,7.5499997,-0.049999997000000004,0.11,-0.04,-0.049999997000000004,0.11,-0.04,4,Lying,4
2019-01-14,23:20:51,5.2000003,1.28,7.5499997,-0.06,0.17,-0.09999999400000001,-0.06,0.17,-0.09999999400000001,4,Lying,4
2019-01-14,23:20:51,4.86,1.4399998999999999,7.6199994,-0.06,0.17,-0.09999999400000001,-0.06,0.17,-0.09999999400000001,4,Lying,4
2019-01-14,23:20:51,4.86,1.4399998999999999,7.6199994,0.01,0.14999999,-0.08,0.01,0.14999999,-0.08,4,Lying,4
2019-01-14,23:20:51,4.6600003,1.3299999,7.4399996,0.01,0.14999999,-0.08,0.01,0.14999999,-0.08,4,Lying,4
2019-01-14,23:20:51,4.6600003,1.3299999,7.4399996,0.06,0.04,-0.01,0.06,0.04,-0.01,4,Lying,4
2019-01-14,23:20:51,5.08,1.27,7.64,0.06,0.04,-0.01,0.06,0.04,-0.01,4,Lying,4
2019-01-14,23:20:51,5.08,1.27,7.64,0.0,0.0,0.049999997000000004,0.0,0.0,0.049999997000000004,4,Lying,4
2019-01-14,23:20:51,5.1800003,1.22,7.5499997,0.0,0.0,0.049999997000000004,0.0,0.0,0.049999997000000004,4,Lying,4
2019-01-14,23:20:51,5.1800003,1.22,7.5499997,-0.03,0.0,0.049999997000000004,-0.03,0.0,0.049999997000000004,4,Lying,4
2019-01-14,23:20:51,5.11,1.3199999,7.5399994999999995,-0.03,0.0,0.049999997000000004,-0.03,0.0,0.049999997000000004,4,Lying,4
2019-01-14,23:20:51,5.11,1.3199999,7.5399994999999995,-0.02,0.04,0.01,-0.02,0.04,0.01,4,Lying,4
2019-01-14,23:20:51,5.11,1.41,7.4999994999999995,-0.02,0.04,0.01,-0.02,0.04,0.01,4,Lying,4
2019-01-14,23:20:51,5.11,1.41,7.4999994999999995,-0.03,0.07,0.0,-0.03,0.07,0.0,4,Lying,4
2019-01-14,23:20:51,4.85,1.4,7.6199994,-0.03,0.07,0.0,-0.03,0.07,0.0,4,Lying,4
2019-01-14,23:20:51,4.85,1.4,7.6199994,-0.02,0.03,0.0,-0.02,0.03,0.0,4,Lying,4
2019-01-14,23:20:51,5.1,1.31,7.7,-0.02,0.03,0.0,-0.02,0.03,0.0,4,Lying,4
2019-01-14,23:20:51,5.1,1.31,7.7,0.0,0.01,0.06,0.0,0.01,0.06,4,Lying,4
2019-01-14,23:20:51,5.26,1.29,7.4599996,0.0,0.01,0.06,0.0,0.01,0.06,4,Lying,4
2019-01-14,23:20:51,5.26,1.29,7.4599996,0.01,0.04,0.049999997000000004,0.01,0.04,0.049999997000000004,4,Lying,4
2019-01-14,23:20:51,5.03,1.16,7.6899996,0.01,0.04,0.049999997000000004,0.01,0.04,0.049999997000000004,4,Lying,4
2019-01-14,23:20:51,5.03,1.16,7.6899996,-0.01,0.06,0.0,-0.01,0.06,0.0,4,Lying,4
2019-01-14,23:20:51,4.75,1.23,7.7299995,-0.01,0.06,0.0,-0.01,0.06,0.0,4,Lying,4
2019-01-14,23:20:51,4.75,1.23,7.7299995,0.02,0.07,-0.01,0.02,0.07,-0.01,4,Lying,4
2019-01-14,23:20:51,4.8,1.22,7.64,0.02,0.07,-0.01,0.02,0.07,-0.01,4,Lying,4
2019-01-14,23:20:51,4.8,1.22,7.64,0.03,0.13,0.03,0.03,0.13,0.03,4,Lying,4
2019-01-14,23:20:51,4.9,1.1899998999999999,7.64,0.03,0.13,0.03,0.03,0.13,0.03,4,Lying,4
2019-01-14,23:20:51,4.9,1.1899998999999999,7.64,0.04,0.04,0.02,0.04,0.04,0.02,4,Lying,4
2019-01-14,23:20:51,4.8,1.35,7.3599997,0.04,0.04,0.02,0.04,0.04,0.02,4,Lying,4
2019-01-14,23:20:51,4.8,1.35,7.3599997,0.03,0.03,0.01,0.03,0.03,0.01,4,Lying,4
2019-01-14,23:20:52,4.84,1.29,7.4999994999999995,0.03,0.03,0.01,0.03,0.03,0.01,4,Lying,4
2019-01-14,23:20:52,4.84,1.29,7.4999994999999995,-0.01,0.01,0.02,-0.01,0.01,0.02,4,Lying,4
2019-01-14,23:20:52,4.94,1.3199999,7.5299997,-0.01,0.01,0.02,-0.01,0.01,0.02,4,Lying,4
2019-01-14,23:20:52,4.94,1.3199999,7.5299997,-0.03,-0.02,0.03,-0.03,-0.02,0.03,4,Lying,4
2019-01-14,23:20:52,4.9100003,1.3299999,7.7,-0.03,-0.02,0.03,-0.03,-0.02,0.03,4,Lying,4
2019-01-14,23:20:52,4.9100003,1.3299999,7.7,-0.01,0.03,0.02,-0.01,0.03,0.02,4,Lying,4
2019-01-14,23:20:52,4.88,1.21,7.9399996,-0.01,0.03,0.02,-0.01,0.03,0.02,4,Lying,4
2019-01-14,23:20:52,4.88,1.21,7.9399996,-0.01,0.07,0.01,-0.01,0.07,0.01,4,Lying,4
2019-01-14,23:20:52,4.67,1.23,7.66,-0.01,0.07,0.01,-0.01,0.07,0.01,4,Lying,4
2019-01-14,23:20:52,4.67,1.23,7.66,0.0,0.01,0.0,0.0,0.01,0.0,4,Lying,4
2019-01-14,23:20:52,4.78,1.26,7.5799994,0.0,0.01,0.0,0.0,0.01,0.0,4,Lying,4
2019-01-14,23:20:52,4.78,1.26,7.5799994,0.0,-0.04,0.0,0.0,-0.04,0.0,4,Lying,4
2019-01-14,23:20:52,4.98,1.17,7.7499994999999995,0.0,-0.04,0.0,0.0,-0.04,0.0,4,Lying,4
2019-01-14,23:20:52,4.98,1.17,7.7499994999999995,-0.02,-0.049999997000000004,0.02,-0.02,-0.049999997000000004,0.02,4,Lying,4
2019-01-14,23:20:52,4.9700003,1.21,7.7499994999999995,-0.02,-0.049999997000000004,0.02,-0.02,-0.049999997000000004,0.02,4,Lying,4
2019-01-14,23:20:52,4.9700003,1.21,7.7499994999999995,0.0,0.02,0.02,0.0,0.02,0.02,4,Lying,4
2019-01-14,23:20:52,4.6600003,1.29,7.5899997,0.0,0.02,0.02,0.0,0.02,0.02,4,Lying,4
2019-01-14,23:20:52,4.6600003,1.29,7.5899997,0.0,0.0,0.0,0.0,0.0,0.0,4,Lying,4
2019-01-14,23:20:52,4.9100003,1.27,7.5499997,0.0,0.0,0.0,0.0,0.0,0.0,4,Lying,4
2019-01-14,23:20:52,4.9100003,1.27,7.5499997,0.0,-0.07,0.02,0.0,-0.07,0.02,4,Lying,4
2019-01-14,23:20:52,4.89,1.26,7.45,0.0,-0.07,0.02,0.0,-0.07,0.02,4,Lying,4
2019-01-14,23:20:52,4.89,1.26,7.45,-0.01,-0.049999997000000004,0.02,-0.01,-0.049999997000000004,0.02,4,Lying,4
2019-01-14,23:20:52,4.96,1.1899998999999999,7.6899996,-0.01,-0.049999997000000004,0.02,-0.01,-0.049999997000000004,0.02,4,Lying,4
2019-01-14,23:20:52,4.96,1.1899998999999999,7.6899996,-0.02,-0.02,0.03,-0.02,-0.02,0.03,4,Lying,4
2019-01-14,23:20:52,5.07,1.25,7.7799997,-0.02,-0.02,0.03,-0.02,-0.02,0.03,4,Lying,4
2019-01-14,23:20:52,5.07,1.25,7.7799997,0.0,0.02,0.01,0.0,0.02,0.01,4,Lying,4
2019-01-14,23:20:52,4.8,1.23,7.7,0.0,0.02,0.01,0.0,0.02,0.01,4,Lying,4
2019-01-14,23:20:52,4.8,1.23,7.7,0.01,0.03,-0.01,0.01,0.03,-0.01,4,Lying,4
2019-01-14,23:20:52,4.81,1.15,7.66,0.01,0.03,-0.01,0.01,0.03,-0.01,4,Lying,4
2019-01-14,23:20:52,4.81,1.15,7.66,0.0,-0.02,0.0,0.0,-0.02,0.0,4,Lying,4
2019-01-14,23:20:52,4.94,1.22,7.4199996,0.0,-0.02,0.0,0.0,-0.02,0.0,4,Lying,4
2019-01-14,23:20:52,4.94,1.22,7.4199996,0.0,-0.04,0.01,0.0,-0.04,0.01,4,Lying,4
2019-01-14,23:20:52,5.02,1.0799999,7.5799994,0.0,-0.04,0.01,0.0,-0.04,0.01,4,Lying,4
2019-01-14,23:20:52,5.02,1.0799999,7.5799994,-0.03,-0.02,0.01,-0.03,-0.02,0.01,4,Lying,4
2019-01-14,23:20:52,4.96,1.16,7.64,-0.03,-0.02,0.01,-0.03,-0.02,0.01,4,Lying,4
2019-01-14,23:20:52,4.96,1.16,7.64,0.0,0.01,0.0,0.0,0.01,0.0,4,Lying,4
2019-01-14,23:20:52,4.82,1.29,7.5899997,0.01,0.04,-0.01,0.01,0.04,-0.01,4,Lying,4
2019-01-14,23:20:52,4.82,1.29,7.5899997,0.01,0.04,-0.01,0.01,0.04,-0.01,4,Lying,4
2019-01-14,23:20:52,4.78,1.25,7.809999499999999,0.01,0.04,-0.01,0.01,0.04,-0.01,4,Lying,4
2019-01-14,23:20:52,4.78,1.25,7.809999499999999,-0.01,0.03,0.0,-0.01,0.03,0.0,4,Lying,4
2019-01-14,23:20:52,4.96,1.1,7.96,-0.01,0.03,0.0,-0.01,0.03,0.0,4,Lying,4
2019-01-14,23:20:52,4.96,1.1,7.96,-0.04,-0.02,0.01,-0.04,-0.02,0.01,4,Lying,4
2019-01-14,23:20:52,4.8,1.21,7.6299996,-0.04,-0.02,0.01,-0.04,-0.02,0.01,4,Lying,4
2019-01-14,23:20:52,4.8,1.21,7.6299996,0.01,-0.02,0.0,0.01,-0.02,0.0,4,Lying,4
2019-01-14,23:20:53,4.94,1.16,7.6299996,0.01,-0.02,0.0,0.01,-0.02,0.0,4,Lying,4
2019-01-14,23:20:53,4.94,1.16,7.6299996,-0.01,-0.02,0.0,-0.01,-0.02,0.0,4,Lying,4
2019-01-14,23:20:53,4.98,1.13,7.599999400000001,-0.01,-0.02,0.0,-0.01,-0.02,0.0,4,Lying,4
2019-01-14,23:20:53,4.98,1.13,7.599999400000001,-0.01,-0.04,0.0,-0.01,-0.04,0.0,4,Lying,4
2019-01-14,23:20:53,5.02,1.12,7.8799996,-0.01,-0.04,0.0,-0.01,-0.04,0.0,4,Lying,4
2019-01-14,23:20:53,5.02,1.12,7.8799996,-0.01,0.01,0.0,-0.01,0.01,0.0,4,Lying,4
2019-01-14,23:20:53,5.15,1.12,8.089999,-0.01,0.01,0.0,-0.01,0.01,0.0,4,Lying,4
2019-01-14,23:20:53,5.15,1.12,8.089999,-0.01,0.049999997000000004,-0.01,-0.01,0.049999997000000004,-0.01,4,Lying,4
2019-01-14,23:20:53,5.2200003,1.3199999,7.6899996,-0.01,0.049999997000000004,-0.01,-0.01,0.049999997000000004,-0.01,4,Lying,4
2019-01-14,23:20:53,5.2200003,1.3199999,7.6899996,0.04,-0.04,-0.049999997000000004,0.04,-0.04,-0.049999997000000004,4,Lying,4
2019-01-14,23:20:53,4.07,1.48,6.6499996,0.04,-0.04,-0.049999997000000004,0.04,-0.04,-0.049999997000000004,4,Lying,4
2019-01-14,23:20:53,4.07,1.48,6.6499996,0.12,-0.02,-0.13,0.12,-0.02,-0.13,4,Lying,4
2019-01-14,23:20:53,4.88,0.93999994,8.0,-0.07,-0.01,0.07,-0.07,-0.01,0.07,4,Lying,4
2019-01-14,23:20:53,4.88,0.93999994,8.0,-0.07,-0.01,0.07,-0.07,-0.01,0.07,4,Lying,4
2019-01-14,23:20:53,4.77,1.22,7.559999499999999,-0.07,-0.01,0.07,-0.07,-0.01,0.07,4,Lying,4
2019-01-14,23:20:53,4.77,1.22,7.559999499999999,0.04,-0.01,-0.02,0.04,-0.01,-0.02,4,Lying,4
2019-01-14,23:20:53,4.58,1.28,7.4999994999999995,0.04,-0.01,-0.02,0.04,-0.01,-0.02,4,Lying,4
2019-01-14,23:20:53,4.58,1.28,7.4999994999999995,0.04,-0.02,-0.02,0.04,-0.02,-0.02,4,Lying,4
2019-01-14,23:20:53,4.9700003,1.34,7.74,0.04,-0.02,-0.02,0.04,-0.02,-0.02,4,Lying,4
2019-01-14,23:20:53,4.9700003,1.34,7.74,0.01,0.0,0.01,0.01,0.0,0.01,4,Lying,4
2019-01-14,23:20:53,4.87,1.23,7.64,0.01,0.0,0.01,0.01,0.0,0.01,4,Lying,4
2019-01-14,23:20:53,4.87,1.23,7.64,0.01,0.02,0.0,0.01,0.02,0.0,4,Lying,4
2019-01-14,23:20:53,5.07,1.35,7.7,0.01,0.02,0.0,0.01,0.02,0.0,4,Lying,4
2019-01-14,23:20:53,5.07,1.35,7.7,0.0,0.0,0.0,0.0,0.0,0.0,4,Lying,4
2019-01-14,23:20:53,4.96,1.37,7.68,0.0,0.0,0.0,0.0,0.0,0.0,4,Lying,4
2019-01-14,23:20:53,4.96,1.37,7.68,0.01,0.0,-0.02,0.01,0.0,-0.02,4,Lying,4
2019-01-14,23:20:53,4.62,1.31,7.3199997,0.01,0.0,-0.02,0.01,0.0,-0.02,4,Lying,4
2019-01-14,23:20:53,4.62,1.31,7.3199997,0.02,0.01,-0.03,0.02,0.01,-0.03,4,Lying,4
2019-01-14,23:20:53,5.17,1.16,8.049999,0.02,0.01,-0.03,0.02,0.01,-0.03,4,Lying,4
2019-01-14,23:20:53,5.17,1.16,8.049999,-0.01,-0.01,0.03,-0.01,-0.01,0.03,4,Lying,4
2019-01-14,23:20:53,4.65,1.27,7.849999400000001,-0.01,-0.01,0.03,-0.01,-0.01,0.03,4,Lying,4
2019-01-14,23:20:53,4.65,1.27,7.849999400000001,0.03,0.049999997000000004,-0.03,0.03,0.049999997000000004,-0.03,4,Lying,4
2019-01-14,23:20:53,4.59,1.31,7.64,0.03,0.049999997000000004,-0.03,0.03,0.049999997000000004,-0.03,4,Lying,4
2019-01-14,23:20:53,4.59,1.31,7.64,0.03,0.02,-0.01,0.03,0.02,-0.01,4,Lying,4
2019-01-14,23:20:53,5.09,1.39,7.4999994999999995,0.03,0.02,-0.01,0.03,0.02,-0.01,4,Lying,4
2019-01-14,23:20:53,5.09,1.39,7.4999994999999995,0.03,-0.08,0.0,0.03,-0.08,0.0,4,Lying,4
2019-01-14,23:20:53,4.88,1.31,7.4799995,0.03,-0.08,0.0,0.03,-0.08,0.0,4,Lying,4
2019-01-14,23:20:53,4.88,1.31,7.4799995,0.0,0.01,-0.02,0.0,0.01,-0.02,4,Lying,4
2019-01-14,23:20:53,4.6,1.29,7.5799994,0.0,0.01,-0.02,0.0,0.01,-0.02,4,Lying,4
2019-01-14,23:20:53,4.6,1.29,7.5799994,0.0,0.02,-0.01,0.0,0.02,-0.01,4,Lying,4
2019-01-14,23:20:53,4.7200003,1.38,7.559999499999999,0.0,0.02,-0.01,0.0,0.02,-0.01,4,Lying,4
2019-01-14,23:20:53,4.7200003,1.38,7.559999499999999,0.01,-0.01,-0.01,0.01,-0.01,-0.01,4,Lying,4
2019-01-14,23:20:53,4.9,1.31,7.99,0.01,-0.01,-0.01,0.01,-0.01,-0.01,4,Lying,4
2019-01-14,23:20:53,4.9,1.31,7.99,-0.01,0.02,0.0,-0.01,0.02,0.0,4,Lying,4
2019-01-14,23:20:53,4.67,1.38,7.68,-0.01,0.02,0.0,-0.01,0.02,0.0,4,Lying,4
2019-01-14,23:20:54,4.67,1.38,7.68,0.01,0.02,-0.01,0.01,0.02,-0.01,4,Lying,4
2019-01-14,23:20:54,4.69,1.4,7.4999994999999995,0.01,0.02,-0.01,0.01,0.02,-0.01,4,Lying,4
2019-01-14,23:20:54,4.69,1.4,7.4999994999999995,0.01,-0.02,-0.01,0.01,-0.02,-0.01,4,Lying,4
2019-01-14,23:20:54,4.98,1.36,7.5399994999999995,0.01,-0.02,-0.01,0.01,-0.02,-0.01,4,Lying,4
2019-01-14,23:20:54,4.98,1.36,7.5399994999999995,-0.02,-0.04,0.01,-0.02,-0.04,0.01,4,Lying,4
2019-01-14,23:20:54,4.9100003,1.28,7.64,-0.04,-0.02,0.01,-0.04,-0.02,0.01,4,Lying,4
2019-01-14,23:20:54,4.9100003,1.28,7.64,-0.04,-0.02,0.01,-0.04,-0.02,0.01,4,Lying,4
2019-01-14,23:20:54,4.71,1.17,7.7,-0.04,-0.02,0.01,-0.04,-0.02,0.01,4,Lying,4
2019-01-14,23:20:54,4.71,1.17,7.7,-0.02,0.0,0.0,-0.02,0.0,0.0,4,Lying,4
2019-01-14,23:20:54,4.88,1.15,7.74,-0.02,0.0,0.0,-0.02,0.0,0.0,4,Lying,4
2019-01-14,23:20:54,4.88,1.15,7.74,0.0,0.0,0.02,0.0,0.0,0.02,4,Lying,4
2019-01-14,23:20:54,4.84,1.3,7.5799994,0.0,0.0,0.02,0.0,0.0,0.02,4,Lying,4
2019-01-14,23:20:54,4.84,1.3,7.5799994,0.04,0.04,0.01,0.04,0.04,0.01,4,Lying,4
2019-01-14,23:20:54,4.78,1.3,7.74,0.04,0.04,0.01,0.04,0.04,0.01,4,Lying,4
2019-01-14,23:20:54,4.78,1.3,7.74,0.0,0.049999997000000004,0.01,0.0,0.049999997000000004,0.01,4,Lying,4
2019-01-14,23:20:54,4.7200003,1.3,7.759999799999999,0.0,0.049999997000000004,0.01,0.0,0.049999997000000004,0.01,4,Lying,4
2019-01-14,23:20:54,4.7200003,1.3,7.759999799999999,-0.01,0.01,0.0,-0.01,0.01,0.0,4,Lying,4
2019-01-14,23:20:54,4.63,1.27,7.66,-0.01,0.01,0.0,-0.01,0.01,0.0,4,Lying,4
2019-01-14,23:20:54,4.63,1.27,7.66,-0.02,0.0,0.01,-0.02,0.0,0.01,4,Lying,4
2019-01-14,23:20:54,4.7200003,1.22,7.66,-0.02,0.0,0.01,-0.02,0.0,0.01,4,Lying,4
2019-01-14,23:20:54,4.7200003,1.22,7.66,-0.01,0.0,0.02,-0.01,0.0,0.02,4,Lying,4
2019-01-14,23:20:54,4.9100003,1.24,7.6699996,-0.01,0.0,0.02,-0.01,0.0,0.02,4,Lying,4
2019-01-14,23:20:54,4.9100003,1.24,7.6699996,-0.01,0.0,0.02,-0.01,0.0,0.02,4,Lying,4
2019-01-14,23:20:54,4.84,1.1999999,7.7899994999999995,-0.02,-0.01,0.0,-0.02,-0.01,0.0,4,Lying,4
2019-01-14,23:20:54,4.84,1.1999999,7.7899994999999995,-0.02,-0.01,0.0,-0.02,-0.01,0.0,4,Lying,4
2019-01-14,23:20:54,4.84,1.1999999,7.7899994999999995,-0.02,-0.01,0.0,-0.02,-0.01,0.0,4,Lying,4
2019-01-14,23:20:54,4.9100003,1.22,7.809999499999999,-0.02,-0.01,0.0,-0.02,-0.01,0.0,4,Lying,4
2019-01-14,23:20:54,4.9100003,1.22,7.809999499999999,0.01,0.01,0.0,0.01,0.01,0.0,4,Lying,4
2019-01-14,23:20:54,4.63,1.3,7.74,0.01,0.01,0.0,0.01,0.01,0.0,4,Lying,4
2019-01-14,23:20:54,4.63,1.3,7.74,0.02,0.04,0.0,0.02,0.04,0.0,4,Lying,4
2019-01-14,23:20:54,4.6600003,1.24,7.7999997,0.02,0.04,0.0,0.02,0.04,0.0,4,Lying,4
2019-01-14,23:20:54,4.6600003,1.24,7.7999997,0.0,0.0,0.01,0.0,0.0,0.01,4,Lying,4
2019-01-14,23:20:54,4.9,1.26,7.6099997,0.0,0.0,0.01,0.0,0.0,0.01,4,Lying,4
2019-01-14,23:20:54,4.9,1.26,7.6099997,0.0,-0.049999997000000004,0.01,0.0,-0.049999997000000004,0.01,4,Lying,4
2019-01-14,23:20:54,4.77,1.22,7.6899996,0.0,-0.049999997000000004,0.01,0.0,-0.049999997000000004,0.01,4,Lying,4
2019-01-14,23:20:54,4.77,1.22,7.6899996,-0.01,0.0,0.0,-0.01,0.0,0.0,4,Lying,4
2019-01-14,23:20:54,4.75,1.25,7.6499996,-0.01,0.0,0.0,-0.01,0.0,0.0,4,Lying,4
2019-01-14,23:20:54,4.75,1.25,7.6499996,-0.01,0.0,0.0,-0.01,0.0,0.0,4,Lying,4
2019-01-14,23:20:54,4.89,1.31,7.6199994,-0.01,0.0,0.0,-0.01,0.0,0.0,4,Lying,4
2019-01-14,23:20:54,4.89,1.31,7.6199994,0.0,-0.049999997000000004,0.0,0.0,-0.049999997000000004,0.0,4,Lying,4
2019-01-14,23:20:54,4.9500003,1.17,7.8799996,0.0,-0.049999997000000004,0.0,0.0,-0.049999997000000004,0.0,4,Lying,4
2019-01-14,23:20:54,4.9500003,1.17,7.8799996,-0.01,-0.04,0.0,-0.01,-0.04,0.0,4,Lying,4
2019-01-14,23:20:54,5.2400002,1.31,7.8999996,-0.01,-0.04,0.0,-0.01,-0.04,0.0,4,Lying,4
2019-01-14,23:20:54,5.2400002,1.31,7.8999996,0.0,0.0,0.0,0.0,0.0,0.0,4,Lying,4
2019-01-14,23:20:55,4.73,1.21,7.4999994999999995,0.0,0.0,0.0,0.0,0.0,0.0,4,Lying,4
2019-01-14,23:20:55,4.73,1.21,7.4999994999999995,0.06,0.01,-0.049999997000000004,0.06,0.01,-0.049999997000000004,4,Lying,4
2019-01-14,23:20:55,4.34,1.39,7.2499994999999995,0.06,0.01,-0.049999997000000004,0.06,0.01,-0.049999997000000004,4,Lying,4
2019-01-14,23:20:55,4.34,1.39,7.2499994999999995,0.06,0.0,-0.049999997000000004,0.06,0.0,-0.049999997000000004,4,Lying,4
2019-01-14,23:20:55,4.79,1.18,7.849999400000001,0.06,0.0,-0.049999997000000004,0.06,0.0,-0.049999997000000004,4,Lying,4
2019-01-14,23:20:55,4.79,1.18,7.849999400000001,0.0,-0.02,0.01,0.0,-0.02,0.01,4,Lying,4
2019-01-14,23:20:55,4.7400002,1.3299999,7.6499996,0.0,-0.02,0.01,0.0,-0.02,0.01,4,Lying,4
2019-01-14,23:20:55,4.7400002,1.3299999,7.6499996,0.01,-0.02,-0.02,0.01,-0.02,-0.02,4,Lying,4
2019-01-14,23:20:55,4.76,1.3,7.599999400000001,0.01,-0.02,-0.02,0.01,-0.02,-0.02,4,Lying,4
2019-01-14,23:20:55,4.76,1.3,7.599999400000001,0.01,-0.04,-0.01,0.01,-0.04,-0.01,4,Lying,4
2019-01-14,23:20:55,4.76,1.27,7.74,0.01,-0.04,-0.01,0.01,-0.04,-0.01,4,Lying,4
2019-01-14,23:20:55,4.76,1.27,7.74,0.0,0.01,0.01,0.0,0.01,0.01,4,Lying,4
2019-01-14,23:20:55,4.84,1.3,7.5399994999999995,0.0,0.01,0.01,0.0,0.01,0.01,4,Lying,4
2019-01-14,23:20:55,4.84,1.3,7.5399994999999995,0.0,-0.03,0.0,0.0,-0.03,0.0,4,Lying,4
2019-01-14,23:20:55,4.96,1.28,7.6499996,0.0,-0.03,0.0,0.0,-0.03,0.0,4,Lying,4
2019-01-14,23:20:55,4.96,1.28,7.6499996,0.0,-0.03,0.0,0.0,-0.03,0.0,4,Lying,4
2019-01-14,23:20:55,4.77,1.35,7.64,0.0,-0.03,0.0,0.0,-0.03,0.0,4,Lying,4
2019-01-14,23:20:55,4.77,1.35,7.64,0.0,0.03,0.0,0.0,0.03,0.0,4,Lying,4
2019-01-14,23:20:55,4.59,1.1999999,7.68,0.0,0.03,0.0,0.0,0.03,0.0,4,Lying,4
2019-01-14,23:20:55,4.59,1.1999999,7.68,0.0,0.03,0.0,0.0,0.03,0.0,4,Lying,4
2019-01-14,23:20:55,4.98,1.17,7.7999997,0.0,0.03,0.0,0.0,0.03,0.0,4,Lying,4
2019-01-14,23:20:55,4.98,1.17,7.7999997,-0.01,-0.04,0.02,-0.01,-0.04,0.02,4,Lying,4
2019-01-14,23:20:55,5.0,1.38,7.6899996,-0.01,-0.04,0.02,-0.01,-0.04,0.02,4,Lying,4
2019-01-14,23:20:55,5.0,1.38,7.6899996,0.03,-0.01,-0.01,0.03,-0.01,-0.01,4,Lying,4
2019-01-14,23:20:55,4.54,1.4599999,7.559999499999999,0.03,-0.01,-0.01,0.03,-0.01,-0.01,4,Lying,4
2019-01-14,23:20:55,4.54,1.4599999,7.559999499999999,0.02,0.04,-0.02,0.02,0.04,-0.02,4,Lying,4
2019-01-14,23:20:55,4.76,1.3299999,7.5499997,0.02,0.04,-0.02,0.02,0.04,-0.02,4,Lying,4
2019-01-14,23:20:55,4.76,1.3299999,7.5499997,-0.01,-0.04,0.03,-0.01,-0.04,0.03,4,Lying,4
2019-01-14,23:20:55,5.07,1.24,7.8299994,-0.01,-0.04,0.03,-0.01,-0.04,0.03,4,Lying,4
2019-01-14,23:20:55,5.07,1.24,7.8299994,-0.02,-0.04,0.02,-0.02,-0.04,0.02,4,Lying,4
2019-01-14,23:20:55,4.6400003,1.35,7.6099997,-0.02,-0.04,0.02,-0.02,-0.04,0.02,4,Lying,4
2019-01-14,23:20:55,4.6400003,1.35,7.6099997,0.03,0.06,-0.01,0.03,0.06,-0.01,4,Lying,4
2019-01-14,23:20:55,4.81,1.37,7.599999400000001,0.03,0.06,-0.01,0.03,0.06,-0.01,4,Lying,4
2019-01-14,23:20:55,4.81,1.37,7.599999400000001,0.01,-0.03,0.0,0.01,-0.03,0.0,4,Lying,4
2019-01-14,23:20:55,4.94,1.26,7.68,0.01,-0.03,0.0,0.01,-0.03,0.0,4,Lying,4
2019-01-14,23:20:55,4.94,1.26,7.68,0.0,-0.02,0.01,0.0,-0.02,0.01,4,Lying,4
2019-01-14,23:20:55,4.65,1.26,7.7299995,0.0,-0.02,0.01,0.0,-0.02,0.01,4,Lying,4
2019-01-14,23:20:55,4.65,1.26,7.7299995,0.0,0.02,0.0,0.0,0.02,0.0,4,Lying,4
2019-01-14,23:20:55,4.81,1.35,7.6199994,0.0,0.02,0.0,0.0,0.02,0.0,4,Lying,4
2019-01-14,23:20:55,4.81,1.35,7.6199994,0.0,-0.02,0.01,0.0,-0.02,0.01,4,Lying,4
2019-01-14,23:20:55,4.77,1.29,7.7299995,0.0,-0.02,0.01,0.0,-0.02,0.01,4,Lying,4
2019-01-14,23:20:55,4.77,1.29,7.7299995,0.0,0.01,0.0,0.0,0.01,0.0,4,Lying,4
2019-01-14,23:20:55,4.69,1.3199999,7.7499994999999995,0.0,0.01,0.0,0.0,0.01,0.0,4,Lying,4
2019-01-14,23:20:55,4.69,1.3199999,7.7499994999999995,0.0,0.0,0.0,0.0,0.0,0.0,4,Lying,4
2019-01-14,23:20:56,4.4500003,1.27,7.12,0.0,0.0,0.0,0.0,0.0,0.0,4,Lying,4
2019-01-14,23:20:56,4.4500003,1.27,7.12,0.01,-0.089999996,0.02,0.01,-0.089999996,0.02,4,Lying,4
2019-01-14,23:20:56,6.19,1.12,8.639999000000001,0.01,-0.089999996,0.02,0.01,-0.089999996,0.02,4,Lying,4
2019-01-14,23:20:56,6.19,1.12,8.639999000000001,-0.089999996,-0.09999999400000001,0.09999999400000001,-0.089999996,-0.09999999400000001,0.09999999400000001,4,Lying,4
2019-01-14,23:20:56,4.32,1.39,7.5399994999999995,-0.089999996,-0.09999999400000001,0.09999999400000001,-0.089999996,-0.09999999400000001,0.09999999400000001,4,Lying,4
2019-01-14,23:20:56,4.32,1.39,7.5399994999999995,0.08,0.19,-0.07,0.08,0.19,-0.07,4,Lying,4
2019-01-14,23:20:56,4.23,1.29,7.6699996,0.08,0.19,-0.07,0.08,0.19,-0.07,4,Lying,4
2019-01-14,23:20:56,4.23,1.29,7.6699996,0.01,0.07,-0.04,0.01,0.07,-0.04,4,Lying,4
2019-01-14,23:20:56,4.73,1.37,7.4799995,0.01,0.07,-0.04,0.01,0.07,-0.04,4,Lying,4
2019-01-14,23:20:56,4.73,1.37,7.4799995,-0.01,-0.09999999400000001,0.03,-0.01,-0.09999999400000001,0.03,4,Lying,4
2019-01-14,23:20:56,4.9,1.26,7.4399996,-0.01,-0.09999999400000001,0.03,-0.01,-0.09999999400000001,0.03,4,Lying,4
2019-01-14,23:20:56,4.9,1.26,7.4399996,-0.049999997000000004,-0.08,0.049999997000000004,-0.049999997000000004,-0.08,0.049999997000000004,4,Lying,4
2019-01-14,23:20:56,4.96,1.0799999,7.7899994999999995,-0.049999997000000004,-0.08,0.049999997000000004,-0.049999997000000004,-0.08,0.049999997000000004,4,Lying,4
2019-01-14,23:20:56,4.96,1.0799999,7.7899994999999995,-0.04,0.0,0.04,-0.04,0.0,0.04,4,Lying,4
2019-01-14,23:20:56,4.63,1.11,7.72,-0.04,0.0,0.04,-0.04,0.0,0.04,4,Lying,4
2019-01-14,23:20:56,4.63,1.11,7.72,0.049999997000000004,0.03,0.02,0.049999997000000004,0.03,0.02,4,Lying,4
2019-01-14,23:20:56,4.9300003,1.3299999,7.5399994999999995,0.049999997000000004,0.03,0.02,0.049999997000000004,0.03,0.02,4,Lying,4
2019-01-14,23:20:56,4.9300003,1.3299999,7.5399994999999995,0.09999999400000001,0.0,0.04,0.09999999400000001,0.0,0.04,4,Lying,4
2019-01-14,23:20:56,4.83,1.31,7.68,0.09999999400000001,0.0,0.04,0.09999999400000001,0.0,0.04,4,Lying,4
2019-01-14,23:20:56,4.83,1.31,7.68,0.01,0.07,0.02,0.01,0.07,0.02,4,Lying,4
2019-01-14,23:20:56,4.6600003,1.43,7.7299995,0.01,0.07,0.02,0.01,0.07,0.02,4,Lying,4
2019-01-14,23:20:56,4.6600003,1.43,7.7299995,-0.01,0.04,0.02,-0.01,0.04,0.02,4,Lying,4
2019-01-14,23:20:56,4.7400002,1.27,7.7899994999999995,-0.01,0.04,0.02,-0.01,0.04,0.02,4,Lying,4
2019-01-14,23:20:56,4.7400002,1.27,7.7899994999999995,-0.02,0.0,0.02,-0.02,0.0,0.02,4,Lying,4
2019-01-14,23:20:56,4.85,1.25,7.74,-0.02,0.0,0.02,-0.02,0.0,0.02,4,Lying,4
2019-01-14,23:20:56,4.85,1.25,7.74,0.0,-0.03,0.04,0.0,-0.03,0.04,4,Lying,4
2019-01-14,23:20:56,5.04,1.26,7.809999499999999,0.0,-0.03,0.04,0.0,-0.03,0.04,4,Lying,4
2019-01-14,23:20:56,5.04,1.26,7.809999499999999,0.02,-0.01,0.04,0.02,-0.01,0.04,4,Lying,4
2019-01-14,23:20:56,4.6400003,1.14,7.7999997,0.02,-0.01,0.04,0.02,-0.01,0.04,4,Lying,4
2019-01-14,23:20:56,4.6400003,1.14,7.7999997,0.02,0.06,0.0,0.02,0.06,0.0,4,Lying,4
2019-01-14,23:20:56,4.63,1.3,7.5699997,0.02,0.06,0.0,0.02,0.06,0.0,4,Lying,4
2019-01-14,23:20:56,4.63,1.3,7.5699997,0.02,0.02,0.0,0.02,0.02,0.0,4,Lying,4
2019-01-14,23:20:56,4.8,1.37,7.5799994,0.02,0.02,0.0,0.02,0.02,0.0,4,Lying,4
2019-01-14,23:20:56,4.8,1.37,7.5799994,0.01,-0.01,0.01,0.01,-0.01,0.01,4,Lying,4
2019-01-14,23:20:56,4.88,1.42,7.64,0.01,-0.01,0.01,0.01,-0.01,0.01,4,Lying,4
2019-01-14,23:20:56,4.88,1.42,7.64,-0.01,-0.02,0.0,-0.01,-0.02,0.0,4,Lying,4
2019-01-14,23:20:56,4.7000003,1.29,7.72,-0.01,-0.02,0.0,-0.01,-0.02,0.0,4,Lying,4
2019-01-14,23:20:56,4.7000003,1.29,7.72,0.0,0.01,0.0,0.0,0.01,0.0,4,Lying,4
2019-01-14,23:20:56,4.7000003,1.39,7.6199994,0.0,0.01,0.0,0.0,0.01,0.0,4,Lying,4
2019-01-14,23:20:56,4.7000003,1.39,7.6199994,0.03,0.0,0.0,0.03,0.0,0.0,4,Lying,4
2019-01-14,23:20:56,4.78,1.24,7.849999400000001,0.03,0.0,0.0,0.03,0.0,0.0,4,Lying,4
2019-01-14,23:20:56,4.78,1.24,7.849999400000001,0.01,0.03,0.0,0.01,0.03,0.0,4,Lying,4
2019-01-14,23:20:56,4.78,1.36,7.7499994999999995,0.01,0.03,0.0,0.01,0.03,0.0,4,Lying,4
2019-01-14,23:20:56,4.78,1.36,7.7499994999999995,0.02,0.04,0.0,0.02,0.04,0.0,4,Lying,4
2019-01-14,23:20:57,4.63,1.25,7.6699996,0.02,0.04,0.0,0.02,0.04,0.0,4,Lying,4
2019-01-14,23:20:57,4.63,1.25,7.6699996,0.0,0.01,0.0,0.0,0.01,0.0,4,Lying,4
2019-01-14,23:20:57,4.6,1.3199999,7.4599996,0.0,0.01,0.0,0.0,0.01,0.0,4,Lying,4
2019-01-14,23:20:57,4.6,1.3199999,7.4599996,0.0,-0.04,0.0,0.0,-0.04,0.0,4,Lying,4
2019-01-14,23:20:57,4.9,1.23,7.5499997,0.0,-0.04,0.0,0.0,-0.04,0.0,4,Lying,4
2019-01-14,23:20:57,4.9,1.23,7.5499997,-0.03,-0.08,0.0,-0.03,-0.08,0.0,4,Lying,4
2019-01-14,23:20:57,5.01,1.39,7.6099997,-0.03,-0.08,0.0,-0.03,-0.08,0.0,4,Lying,4
2019-01-14,23:20:57,5.01,1.39,7.6099997,-0.01,-0.049999997000000004,0.0,-0.01,-0.049999997000000004,0.0,4,Lying,4
2019-01-14,23:20:57,4.52,1.25,7.8799996,-0.01,-0.049999997000000004,0.0,-0.01,-0.049999997000000004,0.0,4,Lying,4
2019-01-14,23:20:57,4.52,1.25,7.8799996,0.0,0.11,-0.01,0.0,0.11,-0.01,4,Lying,4
2019-01-14,23:20:57,4.63,1.31,7.8399997,0.0,0.11,-0.01,0.0,0.11,-0.01,4,Lying,4
2019-01-14,23:20:57,4.63,1.31,7.8399997,0.01,0.01,0.0,0.01,0.01,0.0,4,Lying,4
2019-01-14,23:20:57,4.6400003,1.4,7.6699996,0.01,0.01,0.0,0.01,0.01,0.0,4,Lying,4
2019-01-14,23:20:57,4.6400003,1.4,7.6699996,0.02,-0.02,0.0,0.02,-0.02,0.0,4,Lying,4
2019-01-14,23:20:57,4.76,1.3299999,7.64,0.02,-0.02,0.0,0.02,-0.02,0.0,4,Lying,4
2019-01-14,23:20:57,4.76,1.3299999,7.64,0.0,-0.04,0.01,0.0,-0.04,0.01,4,Lying,4
2019-01-14,23:20:57,4.76,1.1899998999999999,7.66,0.0,-0.04,0.01,0.0,-0.04,0.01,4,Lying,4
2019-01-14,23:20:57,4.76,1.1899998999999999,7.66,-0.01,0.0,0.01,-0.01,0.0,0.01,4,Lying,4
2019-01-14,23:20:57,4.77,1.28,7.7299995,-0.01,0.0,0.01,-0.01,0.0,0.01,4,Lying,4
2019-01-14,23:20:57,4.77,1.28,7.7299995,0.0,0.0,0.0,0.0,0.0,0.0,4,Lying,4
2019-01-14,23:20:57,4.7400002,1.25,7.7299995,0.0,0.0,0.0,0.0,0.0,0.0,4,Lying,4
2019-01-14,23:20:57,4.7400002,1.25,7.7299995,0.01,0.0,0.0,0.01,0.0,0.0,4,Lying,4
2019-01-14,23:20:57,4.7400002,1.31,7.6299996,0.01,0.0,0.0,0.01,0.0,0.0,4,Lying,4
2019-01-14,23:20:57,4.7400002,1.31,7.6299996,0.01,0.0,0.0,0.01,0.0,0.0,4,Lying,4
2019-01-14,23:20:57,4.78,1.35,7.74,0.01,0.0,0.0,0.01,0.0,0.0,4,Lying,4
2019-01-14,23:20:57,4.78,1.35,7.74,0.0,0.0,0.0,0.0,0.0,0.0,4,Lying,4
2019-01-14,23:20:57,4.54,1.29,7.89,0.0,0.0,0.0,0.0,0.0,0.0,4,Lying,4
2019-01-14,23:20:57,4.54,1.29,7.89,0.0,0.049999997000000004,0.0,0.0,0.049999997000000004,0.0,4,Lying,4
2019-01-14,23:20:57,4.69,1.35,7.809999499999999,0.0,0.049999997000000004,0.0,0.0,0.049999997000000004,0.0,4,Lying,4
2019-01-14,23:20:57,4.69,1.35,7.809999499999999,0.0,-0.02,0.01,0.0,-0.02,0.01,4,Lying,4
2019-01-14,23:20:57,4.79,1.4,7.7,0.0,-0.02,0.01,0.0,-0.02,0.01,4,Lying,4
2019-01-14,23:20:57,4.79,1.4,7.7,0.0,-0.04,0.0,0.0,-0.04,0.0,4,Lying,4
2019-01-14,23:20:57,4.62,1.24,7.74,0.0,-0.04,0.0,0.0,-0.04,0.0,4,Lying,4
2019-01-14,23:20:57,4.62,1.24,7.74,-0.02,0.0,0.0,-0.02,0.0,0.0,4,Lying,4
2019-01-14,23:20:57,4.84,1.3199999,7.6199994,-0.02,0.0,0.0,-0.02,0.0,0.0,4,Lying,4
2019-01-14,23:20:57,4.84,1.3199999,7.6199994,0.0,-0.06,0.01,0.0,-0.06,0.01,4,Lying,4
2019-01-14,23:20:57,4.79,1.21,7.6699996,0.0,-0.06,0.01,0.0,-0.06,0.01,4,Lying,4
2019-01-14,23:20:57,4.79,1.21,7.6699996,0.0,0.0,0.0,0.0,0.0,0.0,4,Lying,4
2019-01-14,23:20:57,4.7000003,1.38,7.5799994,0.0,0.0,0.0,0.0,0.0,0.0,4,Lying,4
2019-01-14,23:20:57,4.7000003,1.38,7.5799994,0.01,0.01,0.0,0.01,0.01,0.0,4,Lying,4
2019-01-14,23:20:57,4.87,1.29,7.8399997,0.01,0.01,0.0,0.01,0.01,0.0,4,Lying,4
2019-01-14,23:20:57,4.87,1.29,7.8399997,0.0,0.01,0.01,0.0,0.01,0.01,4,Lying,4
2019-01-14,23:20:57,5.14,1.25,7.9699993000000005,0.0,0.01,0.01,0.0,0.01,0.01,4,Lying,4
2019-01-14,23:20:57,5.14,1.25,7.9699993000000005,0.0,0.0,0.0,0.0,0.0,0.0,4,Lying,4
2019-01-14,23:20:57,4.88,1.4,7.7999997,0.0,0.0,0.0,0.0,0.0,0.0,4,Lying,4
2019-01-14,23:20:57,4.88,1.4,7.7999997,0.049999997000000004,0.0,-0.03,0.049999997000000004,0.0,-0.03,4,Lying,4
2019-01-14,23:20:57,4.07,1.34,7.3599997,0.049999997000000004,0.0,-0.03,0.049999997000000004,0.0,-0.03,4,Lying,4
2019-01-14,23:20:58,4.07,1.34,7.3599997,0.049999997000000004,0.09999999400000001,-0.049999997000000004,0.049999997000000004,0.09999999400000001,-0.049999997000000004,4,Lying,4
2019-01-14,23:20:58,4.4500003,1.29,7.5299997,0.049999997000000004,0.09999999400000001,-0.049999997000000004,0.049999997000000004,0.09999999400000001,-0.049999997000000004,4,Lying,4
2019-01-14,23:20:58,4.4500003,1.29,7.5299997,0.0,-0.04,0.01,0.0,-0.04,0.01,4,Lying,4
2019-01-14,23:20:58,4.92,1.25,7.759999799999999,0.0,-0.04,0.01,0.0,-0.04,0.01,4,Lying,4
2019-01-14,23:20:58,4.92,1.25,7.759999799999999,-0.01,-0.08,0.01,-0.01,-0.08,0.01,4,Lying,4
2019-01-14,23:20:58,4.78,1.3299999,7.7799997,-0.01,-0.08,0.01,-0.01,-0.08,0.01,4,Lying,4
2019-01-14,23:20:58,4.78,1.3299999,7.7799997,0.0,0.02,-0.01,0.0,0.02,-0.01,4,Lying,4
2019-01-14,23:20:58,4.6,1.3299999,7.809999499999999,0.0,0.02,-0.01,0.0,0.02,-0.01,4,Lying,4
2019-01-14,23:20:58,4.6,1.3299999,7.809999499999999,0.01,0.049999997000000004,0.0,0.01,0.049999997000000004,0.0,4,Lying,4
2019-01-14,23:20:58,4.62,1.39,7.66,0.01,0.049999997000000004,0.0,0.01,0.049999997000000004,0.0,4,Lying,4
2019-01-14,23:20:58,4.62,1.39,7.66,0.02,0.01,0.0,0.02,0.01,0.0,4,Lying,4
2019-01-14,23:20:58,4.59,1.37,7.66,0.02,0.01,0.0,0.02,0.01,0.0,4,Lying,4
2019-01-14,23:20:58,4.59,1.37,7.66,0.0,0.0,0.0,0.0,0.0,0.0,4,Lying,4
2019-01-14,23:20:58,4.7400002,1.36,7.6499996,0.0,0.0,0.0,0.0,0.0,0.0,4,Lying,4
2019-01-14,23:20:58,4.7400002,1.36,7.6499996,-0.01,-0.02,0.02,-0.01,-0.02,0.02,4,Lying,4
2019-01-14,23:20:58,4.6400003,1.36,7.72,-0.01,-0.02,0.02,-0.01,-0.02,0.02,4,Lying,4
2019-01-14,23:20:58,4.6400003,1.36,7.72,0.0,0.0,0.0,0.0,0.0,0.0,4,Lying,4
2019-01-14,23:20:58,4.6,1.3299999,7.7299995,0.0,0.0,0.0,0.0,0.0,0.0,4,Lying,4
2019-01-14,23:20:58,4.6,1.3299999,7.7299995,-0.01,0.01,0.01,-0.01,0.01,0.01,4,Lying,4
2019-01-14,23:20:58,4.7000003,1.3299999,7.8599997,0.0,0.01,0.01,0.0,0.01,0.01,4,Lying,4
2019-01-14,23:20:58,4.7000003,1.3299999,7.8599997,0.0,0.01,0.01,0.0,0.01,0.01,4,Lying,4
2019-01-14,23:20:58,4.6400003,1.35,7.7699995,0.0,0.01,0.01,0.0,0.01,0.01,4,Lying,4
2019-01-14,23:20:58,4.6400003,1.35,7.7699995,0.0,0.0,0.0,0.0,0.0,0.0,4,Lying,4
2019-01-14,23:20:58,4.6800003,1.36,7.6899996,0.0,0.0,0.0,0.0,0.0,0.0,4,Lying,4
2019-01-14,23:20:58,4.6800003,1.36,7.6899996,0.0,-0.02,0.0,0.0,-0.02,0.0,4,Lying,4
2019-01-14,23:20:58,4.81,1.3,7.6899996,0.0,-0.02,0.0,0.0,-0.02,0.0,4,Lying,4
2019-01-14,23:20:58,4.81,1.3,7.6899996,0.0,-0.03,0.01,0.0,-0.03,0.01,4,Lying,4
2019-01-14,23:20:58,4.7200003,1.28,7.809999499999999,0.0,-0.03,0.01,0.0,-0.03,0.01,4,Lying,4
2019-01-14,23:20:58,4.7200003,1.28,7.809999499999999,0.01,0.0,0.0,0.01,0.0,0.0,4,Lying,4
2019-01-14,23:20:58,4.53,1.39,7.6699996,0.01,0.0,0.0,0.01,0.0,0.0,4,Lying,4
2019-01-14,23:20:58,4.53,1.39,7.6699996,0.01,0.0,0.0,0.01,0.0,0.0,4,Lying,4
2019-01-14,23:20:58,4.79,1.37,7.7299995,0.01,0.0,0.0,0.01,0.0,0.0,4,Lying,4
2019-01-14,23:20:58,4.79,1.37,7.7299995,-0.01,-0.049999997000000004,0.01,-0.01,-0.049999997000000004,0.01,4,Lying,4
2019-01-14,23:20:58,5.02,1.27,7.91,-0.01,-0.049999997000000004,0.01,-0.01,-0.049999997000000004,0.01,4,Lying,4
2019-01-14,23:20:58,5.02,1.27,7.91,0.0,-0.04,0.01,0.0,-0.04,0.01,4,Lying,4
2019-01-14,23:20:58,4.34,1.37,7.4799995,0.0,-0.04,0.01,0.0,-0.04,0.01,4,Lying,4
2019-01-14,23:20:58,4.34,1.37,7.4799995,0.03,0.02,-0.02,0.03,0.02,-0.02,4,Lying,4
2019-01-14,23:20:58,4.78,1.28,7.8599997,0.03,0.02,-0.02,0.03,0.02,-0.02,4,Lying,4
2019-01-14,23:20:58,4.78,1.28,7.8599997,0.0,-0.02,0.01,0.0,-0.02,0.01,4,Lying,4
2019-01-14,23:20:58,4.58,1.3,7.74,0.0,-0.02,0.01,0.0,-0.02,0.01,4,Lying,4
2019-01-14,23:20:58,4.58,1.3,7.74,0.01,0.0,0.0,0.01,0.0,0.0,4,Lying,4
2019-01-14,23:20:58,4.4900002,1.34,7.6299996,0.01,0.0,0.0,0.01,0.0,0.0,4,Lying,4
2019-01-14,23:20:58,4.4900002,1.34,7.6299996,0.02,0.0,0.0,0.02,0.0,0.0,4,Lying,4
2019-01-14,23:20:58,4.7000003,1.3,7.6099997,0.02,0.0,0.0,0.02,0.0,0.0,4,Lying,4
2019-01-14,23:20:58,4.7000003,1.3,7.6099997,0.0,-0.02,0.01,0.0,-0.02,0.01,4,Lying,4
2019-01-14,23:20:59,4.82,1.36,7.7099996,0.0,-0.02,0.01,0.0,-0.02,0.01,4,Lying,4
2019-01-14,23:20:59,4.82,1.36,7.7099996,0.0,-0.02,0.02,0.0,-0.02,0.02,4,Lying,4
2019-01-14,23:20:59,4.59,1.27,7.7,-0.02,0.03,0.01,-0.02,0.03,0.01,4,Lying,4
2019-01-14,23:20:59,4.59,1.27,7.7,-0.02,0.03,0.01,-0.02,0.03,0.01,4,Lying,4
2019-01-14,23:20:59,4.6600003,1.36,7.759999799999999,-0.02,0.03,0.01,-0.02,0.03,0.01,4,Lying,4
2019-01-14,23:20:59,4.6600003,1.36,7.759999799999999,0.02,0.0,0.0,0.02,0.0,0.0,4,Lying,4
2019-01-14,23:20:59,4.71,1.36,7.7899994999999995,0.02,0.0,0.0,0.02,0.0,0.0,4,Lying,4
2019-01-14,23:20:59,4.71,1.36,7.7899994999999995,0.0,0.0,0.0,0.0,0.0,0.0,4,Lying,4
2019-01-14,23:20:59,4.6,1.38,7.7099996,0.0,0.0,0.0,0.0,0.0,0.0,4,Lying,4
2019-01-14,23:20:59,4.6,1.38,7.7099996,0.0,0.0,0.0,0.0,0.0,0.0,4,Lying,4
2019-01-14,23:20:59,4.6400003,1.3299999,7.7999997,0.0,0.0,0.0,0.0,0.0,0.0,4,Lying,4
2019-01-14,23:20:59,4.6400003,1.3299999,7.7999997,-0.01,0.0,0.01,-0.01,0.0,0.01,4,Lying,4
2019-01-14,23:20:59,4.7000003,1.3299999,7.72,0.0,-0.01,0.0,0.0,-0.01,0.0,4,Lying,4
2019-01-14,23:20:59,4.7000003,1.3299999,7.72,0.0,-0.01,0.0,0.0,-0.01,0.0,4,Lying,4
2019-01-14,23:20:59,4.8,1.27,7.9799995,0.0,-0.01,0.0,0.0,-0.01,0.0,4,Lying,4
2019-01-14,23:20:59,4.8,1.27,7.9799995,0.0,0.01,0.01,0.0,0.01,0.01,4,Lying,4
2019-01-14,23:20:59,4.6,1.28,7.7699995,0.0,0.01,0.01,0.0,0.01,0.01,4,Lying,4
2019-01-14,23:20:59,4.6,1.28,7.7699995,0.01,0.01,0.0,0.01,0.01,0.0,4,Lying,4
2019-01-14,23:20:59,4.77,1.39,7.6699996,0.01,0.01,0.0,0.01,0.01,0.0,4,Lying,4
2019-01-14,23:20:59,4.77,1.39,7.6699996,0.02,-0.03,0.0,0.02,-0.03,0.0,4,Lying,4
2019-01-14,23:20:59,4.53,1.34,7.6499996,0.02,-0.03,0.0,0.02,-0.03,0.0,4,Lying,4
2019-01-14,23:20:59,4.53,1.34,7.6499996,0.01,0.01,0.0,0.01,0.01,0.0,4,Lying,4
2019-01-14,23:20:59,4.63,1.34,7.8199997,0.01,0.01,0.0,0.01,0.01,0.0,4,Lying,4
2019-01-14,23:20:59,4.63,1.34,7.8199997,-0.01,0.0,0.01,-0.01,0.0,0.01,4,Lying,4
2019-01-14,23:20:59,4.67,1.35,7.759999799999999,-0.01,0.0,0.01,-0.01,0.0,0.01,4,Lying,4
2019-01-14,23:20:59,4.67,1.35,7.759999799999999,0.0,-0.01,0.0,0.0,-0.01,0.0,4,Lying,4
2019-01-14,23:20:59,4.7200003,1.3299999,7.7799997,0.0,-0.01,0.0,0.0,-0.01,0.0,4,Lying,4
2019-01-14,23:20:59,4.7200003,1.3299999,7.7799997,0.0,-0.02,0.0,0.0,-0.02,0.0,4,Lying,4
2019-01-14,23:20:59,4.6600003,1.37,7.7299995,0.0,-0.02,0.0,0.0,-0.02,0.0,4,Lying,4
2019-01-14,23:20:59,4.6600003,1.37,7.7299995,0.0,0.01,0.0,0.0,0.01,0.0,4,Lying,4
2019-01-14,23:20:59,4.85,1.28,7.99,0.0,0.01,0.0,0.0,0.01,0.0,4,Lying,4
2019-01-14,23:20:59,4.85,1.28,7.99,-0.01,-0.02,0.0,-0.01,-0.02,0.0,4,Lying,4
2019-01-14,23:20:59,4.55,1.35,7.5799994,-0.01,-0.02,0.0,-0.01,-0.02,0.0,4,Lying,4
2019-01-14,23:20:59,4.55,1.35,7.5799994,0.03,-0.01,-0.02,0.03,-0.01,-0.02,4,Lying,4
2019-01-14,23:20:59,4.79,1.36,7.7799997,0.03,-0.01,-0.02,0.03,-0.01,-0.02,4,Lying,4
2019-01-14,23:20:59,4.79,1.36,7.7799997,0.0,-0.03,0.0,0.0,-0.03,0.0,4,Lying,4
2019-01-14,23:20:59,4.42,1.3299999,7.6499996,0.0,0.0,0.0,0.0,0.0,0.0,4,Lying,4
2019-01-14,23:20:59,4.42,1.3299999,7.6499996,0.0,0.0,0.0,0.0,0.0,0.0,4,Lying,4
2019-01-14,23:20:59,4.6600003,1.36,7.64,0.0,0.0,0.0,0.0,0.0,0.0,4,Lying,4
2019-01-14,23:20:59,4.6600003,1.36,7.64,0.0,-0.02,0.01,0.0,-0.02,0.01,4,Lying,4
2019-01-14,23:20:59,4.8,1.41,7.66,0.0,-0.02,0.01,0.0,-0.02,0.01,4,Lying,4
2019-01-14,23:20:59,4.8,1.41,7.66,0.0,-0.02,0.0,0.0,-0.02,0.0,4,Lying,4
2019-01-14,23:20:59,4.6600003,1.24,7.9399996,0.0,-0.02,0.0,0.0,-0.02,0.0,4,Lying,4
2019-01-14,23:20:59,4.6600003,1.24,7.9399996,0.0,0.01,0.0,0.0,0.01,0.0,4,Lying,4
2019-01-14,23:20:59,4.71,1.28,7.7799997,0.0,0.01,0.0,0.0,0.01,0.0,4,Lying,4
2019-01-14,23:21:00,4.71,1.28,7.7799997,0.01,0.01,0.0,0.01,0.01,0.0,4,Lying,4
2019-01-14,23:21:00,4.8,1.43,7.7,0.01,0.01,0.0,0.01,0.01,0.0,4,Lying,4
2019-01-14,23:21:00,4.8,1.43,7.7,0.02,-0.03,-0.01,0.02,-0.03,-0.01,4,Lying,4
2019-01-14,23:21:00,4.4700003,1.39,7.6299996,0.02,-0.03,-0.01,0.02,-0.03,-0.01,4,Lying,4
2019-01-14,23:21:00,4.4700003,1.39,7.6299996,0.01,0.04,0.0,0.01,0.04,0.0,4,Lying,4
2019-01-14,23:21:00,4.7000003,1.4,7.809999499999999,0.01,0.04,0.0,0.01,0.04,0.0,4,Lying,4
2019-01-14,23:21:00,4.7000003,1.4,7.809999499999999,-0.01,-0.01,0.0,-0.01,-0.01,0.0,4,Lying,4
2019-01-14,23:21:00,4.84,1.38,7.9699993000000005,-0.01,-0.01,0.0,-0.01,-0.01,0.0,4,Lying,4
2019-01-14,23:21:00,4.84,1.38,7.9699993000000005,0.0,-0.01,0.0,0.0,-0.01,0.0,4,Lying,4
2019-01-14,23:21:00,4.27,1.25,6.87,0.0,0.0,0.0,0.0,0.0,0.0,4,Lying,4
2019-01-14,23:21:00,4.27,1.25,6.87,0.0,0.0,0.0,0.0,0.0,0.0,4,Lying,4
2019-01-14,23:21:00,2.61,1.3299999,6.5699997,0.0,0.0,0.0,0.0,0.0,0.0,4,Lying,4
2019-01-14,23:21:00,2.61,1.3299999,6.5699997,0.11,0.04,-0.14,0.11,0.04,-0.14,4,Lying,4
2019-01-14,23:21:00,6.1800003,1.11,8.839999,0.11,0.04,-0.14,0.11,0.04,-0.14,4,Lying,4
2019-01-14,23:21:00,6.1800003,1.11,8.839999,-0.22999999,-0.34,0.26,-0.22999999,-0.34,0.26,4,Lying,4
2019-01-14,23:21:00,5.21,1.17,8.129999,-0.22999999,-0.34,0.26,-0.22999999,-0.34,0.26,4,Lying,4
2019-01-14,23:21:00,5.21,1.17,8.129999,0.049999997000000004,-0.02,-0.02,0.049999997000000004,-0.02,-0.02,4,Lying,4
2019-01-14,23:21:00,5.46,1.21,8.549999,0.049999997000000004,-0.02,-0.02,0.049999997000000004,-0.02,-0.02,4,Lying,4
2019-01-14,23:21:00,5.46,1.21,8.549999,0.08,0.01,-0.07,0.08,0.01,-0.07,4,Lying,4
2019-01-14,23:21:00,3.07,1.9300001,5.7099996,0.08,0.01,-0.07,0.08,0.01,-0.07,4,Lying,4
2019-01-14,23:21:00,3.07,1.9300001,5.7099996,0.26,0.14,-0.14,0.26,0.14,-0.14,4,Lying,4
2019-01-14,23:21:00,4.96,1.23,8.17,-0.17,0.04,0.13,-0.17,0.04,0.13,4,Lying,4
2019-01-14,23:21:00,4.96,1.23,8.17,-0.17,0.04,0.13,-0.17,0.04,0.13,4,Lying,4
2019-01-14,23:21:00,4.87,1.22,7.66,-0.17,0.04,0.13,-0.17,0.04,0.13,4,Lying,4
2019-01-14,23:21:00,4.87,1.22,7.66,-0.02,-0.14999999,0.04,-0.02,-0.14999999,0.04,4,Lying,4
2019-01-14,23:21:00,5.26,1.29,8.24,-0.02,-0.14999999,0.04,-0.02,-0.14999999,0.04,4,Lying,4
2019-01-14,23:21:00,5.26,1.29,8.24,0.0,-0.12,0.06,0.0,-0.12,0.06,4,Lying,4
2019-01-14,23:21:00,5.7000003,1.1999999,8.23,0.0,-0.12,0.06,0.0,-0.12,0.06,4,Lying,4
2019-01-14,23:21:00,5.7000003,1.1999999,8.23,0.04,-0.02,0.04,0.04,-0.02,0.04,4,Lying,4
2019-01-14,23:21:00,3.6699998,1.69,6.1499996,0.04,-0.02,0.04,0.04,-0.02,0.04,4,Lying,4
2019-01-14,23:21:00,3.6699998,1.69,6.1499996,0.14999999,0.14999999,-0.089999996,0.14999999,0.14999999,-0.089999996,4,Lying,4
2019-01-14,23:21:00,5.4100003,1.03,9.08,0.14999999,0.14999999,-0.089999996,0.14999999,0.14999999,-0.089999996,4,Lying,4
2019-01-14,23:21:00,5.4100003,1.03,9.08,-0.19,-0.06,0.14,-0.19,-0.06,0.14,4,Lying,4
2019-01-14,23:21:00,5.36,1.23,8.059999000000001,-0.19,-0.06,0.14,-0.19,-0.06,0.14,4,Lying,4
2019-01-14,23:21:00,5.36,1.23,8.059999000000001,-0.049999997000000004,-0.26999998,0.08,-0.049999997000000004,-0.26999998,0.08,4,Lying,4
2019-01-14,23:21:00,4.9700003,1.36,7.3399997,-0.049999997000000004,-0.26999998,0.08,-0.049999997000000004,-0.26999998,0.08,4,Lying,4
2019-01-14,23:21:00,4.9700003,1.36,7.3399997,-0.01,0.089999996,0.03,-0.01,0.089999996,0.03,4,Lying,4
2019-01-14,23:21:00,6.14,1.11,9.37,-0.01,0.089999996,0.03,-0.01,0.089999996,0.03,4,Lying,4
2019-01-14,23:21:00,6.14,1.11,9.37,-0.12,0.07,0.06,-0.12,0.07,0.06,4,Lying,4
2019-01-14,23:21:00,2.72,1.69,6.5799994,-0.12,0.07,0.06,-0.12,0.07,0.06,4,Lying,4
2019-01-14,23:21:00,2.72,1.69,6.5799994,0.19999999,0.26999998,-0.19,0.19999999,0.26999998,-0.19,4,Lying,4
2019-01-14,23:21:00,5.94,1.13,8.589999,0.19999999,0.26999998,-0.19,0.19999999,0.26999998,-0.19,4,Lying,4
2019-01-14,23:21:00,5.94,1.13,8.589999,-0.09999999400000001,-0.29,0.19999999,-0.09999999400000001,-0.29,0.19999999,4,Lying,4
2019-01-14,23:21:00,5.1800003,1.3299999,7.2499994999999995,-0.09999999400000001,-0.29,0.19999999,-0.09999999400000001,-0.29,0.19999999,4,Lying,4
2019-01-14,23:21:00,5.1800003,1.3299999,7.2499994999999995,0.0,-0.03,0.02,0.0,-0.03,0.02,4,Lying,4
2019-01-14,23:21:00,5.0,1.49,7.8199997,0.0,-0.03,0.02,0.0,-0.03,0.02,4,Lying,4
2019-01-14,23:21:01,5.0,1.49,7.8199997,-0.049999997000000004,0.14999999,0.01,-0.049999997000000004,0.14999999,0.01,4,Lying,4
2019-01-14,23:21:01,4.6,1.29,8.549999,-0.089999996,0.16,0.01,-0.089999996,0.16,0.01,4,Lying,4
2019-01-14,23:21:01,4.6,1.29,8.549999,-0.089999996,0.16,0.01,-0.089999996,0.16,0.01,4,Lying,4
2019-01-14,23:21:01,3.6499998999999996,1.35,7.6499996,-0.089999996,0.16,0.01,-0.089999996,0.16,0.01,4,Lying,4
2019-01-14,23:21:01,3.6499998999999996,1.35,7.6499996,0.04,0.19999999,-0.06,0.04,0.19999999,-0.06,4,Lying,4
2019-01-14,23:21:01,3.9399998,1.39,7.0399994999999995,0.04,0.19999999,-0.06,0.04,0.19999999,-0.06,4,Lying,4
2019-01-14,23:21:01,3.9399998,1.39,7.0399994999999995,0.07,-0.07,-0.01,0.07,-0.07,-0.01,4,Lying,4
2019-01-14,23:21:01,5.6800003,1.09,8.12,0.07,-0.07,-0.01,0.07,-0.07,-0.01,4,Lying,4
2019-01-14,23:21:01,5.6800003,1.09,8.12,-0.04,-0.22,0.089999996,-0.04,-0.22,0.089999996,4,Lying,4
2019-01-14,23:21:01,3.9299998,1.5799999,7.2899994999999995,0.09999999400000001,0.11,-0.089999996,0.09999999400000001,0.11,-0.089999996,4,Lying,4
2019-01-14,23:21:01,3.9299998,1.5799999,7.2899994999999995,0.09999999400000001,0.11,-0.089999996,0.09999999400000001,0.11,-0.089999996,4,Lying,4
2019-01-14,23:21:01,4.0,1.38,7.4999994999999995,0.09999999400000001,0.11,-0.089999996,0.09999999400000001,0.11,-0.089999996,4,Lying,4
2019-01-14,23:21:01,4.0,1.38,7.4999994999999995,0.07,0.11,-0.049999997000000004,0.07,0.11,-0.049999997000000004,4,Lying,4
2019-01-14,23:21:01,4.6,1.21,7.72,0.07,0.11,-0.049999997000000004,0.07,0.11,-0.049999997000000004,4,Lying,4
2019-01-14,23:21:01,4.6,1.21,7.72,-0.01,-0.08,0.01,-0.01,-0.08,0.01,4,Lying,4
2019-01-14,23:21:01,4.58,1.28,7.6899996,-0.01,-0.08,0.01,-0.01,-0.08,0.01,4,Lying,4
2019-01-14,23:21:01,4.58,1.28,7.6899996,0.0,-0.09999999400000001,0.0,0.0,-0.09999999400000001,0.0,4,Lying,4
2019-01-14,23:21:01,4.86,1.3299999,8.15,0.0,-0.09999999400000001,0.0,0.0,-0.09999999400000001,0.0,4,Lying,4
2019-01-14,23:21:01,4.86,1.3299999,8.15,0.0,0.0,0.01,0.0,0.0,0.01,4,Lying,4
2019-01-14,23:21:01,4.23,1.49,7.64,0.0,0.0,0.01,0.0,0.0,0.01,4,Lying,4
2019-01-14,23:21:01,4.23,1.49,7.64,0.07,0.03,-0.04,0.07,0.03,-0.04,4,Lying,4
2019-01-14,23:21:01,4.58,1.49,7.6499996,0.07,0.03,-0.04,0.07,0.03,-0.04,4,Lying,4
2019-01-14,23:21:01,4.58,1.49,7.6499996,0.02,-0.03,0.0,0.02,-0.03,0.0,4,Lying,4
2019-01-14,23:21:01,4.61,1.47,7.72,0.02,-0.03,0.0,0.02,-0.03,0.0,4,Lying,4
2019-01-14,23:21:01,4.61,1.47,7.72,-0.01,-0.03,0.01,-0.01,-0.03,0.01,4,Lying,4
2019-01-14,23:21:01,4.6,1.47,7.74,-0.01,-0.03,0.01,-0.01,-0.03,0.01,4,Lying,4
2019-01-14,23:21:01,4.6,1.47,7.74,0.0,-0.02,0.0,0.0,-0.02,0.0,4,Lying,4
2019-01-14,23:21:01,4.4100003,1.39,7.5899997,0.0,-0.02,0.0,0.0,-0.02,0.0,4,Lying,4
2019-01-14,23:21:01,4.4100003,1.39,7.5899997,0.02,0.0,0.0,0.02,0.0,0.0,4,Lying,4
2019-01-14,23:21:01,4.62,1.41,7.7699995,0.02,0.0,0.0,0.02,0.0,0.0,4,Lying,4
2019-01-14,23:21:01,4.62,1.41,7.7699995,0.0,0.0,0.0,0.0,0.0,0.0,4,Lying,4
2019-01-14,23:21:01,4.61,1.43,7.8299994,0.0,0.0,0.0,0.0,0.0,0.0,4,Lying,4
2019-01-14,23:21:01,4.61,1.43,7.8299994,-0.01,0.02,0.01,-0.01,0.02,0.01,4,Lying,4
2019-01-14,23:21:01,4.52,1.43,7.849999400000001,-0.01,0.02,0.01,-0.01,0.02,0.01,4,Lying,4
2019-01-14,23:21:01,4.52,1.43,7.849999400000001,0.0,0.0,0.01,0.0,0.0,0.01,4,Lying,4
2019-01-14,23:21:01,4.44,1.48,7.6499996,0.0,0.0,0.01,0.0,0.0,0.01,4,Lying,4
2019-01-14,23:21:01,4.44,1.48,7.6499996,0.0,0.0,0.02,0.0,0.0,0.02,4,Lying,4
2019-01-14,23:21:01,4.7200003,1.34,7.8299994,0.0,0.0,0.02,0.0,0.0,0.02,4,Lying,4
2019-01-14,23:21:01,4.7200003,1.34,7.8299994,-0.02,0.0,0.04,-0.02,0.0,0.04,4,Lying,4
2019-01-14,23:21:01,4.7400002,1.34,7.96,-0.02,0.0,0.04,-0.02,0.0,0.04,4,Lying,4
2019-01-14,23:21:01,4.7400002,1.34,7.96,0.0,0.04,0.02,0.0,0.04,0.02,4,Lying,4
2019-01-14,23:21:01,4.35,1.49,7.7499994999999995,0.0,0.04,0.02,0.0,0.04,0.02,4,Lying,4
2019-01-14,23:21:01,4.35,1.49,7.7499994999999995,0.04,0.07,0.0,0.04,0.07,0.0,4,Lying,4
2019-01-14,23:21:01,4.46,1.49,7.7899994999999995,0.04,0.07,0.0,0.04,0.07,0.0,4,Lying,4
2019-01-14,23:21:02,4.46,1.49,7.7899994999999995,0.03,-0.04,0.0,0.03,-0.04,0.0,4,Lying,4
2019-01-14,23:21:02,4.6600003,1.43,7.8399997,0.03,-0.04,0.0,0.03,-0.04,0.0,4,Lying,4
2019-01-14,23:21:02,4.6600003,1.43,7.8399997,0.03,0.01,0.0,0.03,0.01,0.0,4,Lying,4
2019-01-14,23:21:02,4.4900002,1.4499999,7.8399997,0.03,0.01,0.0,0.03,0.01,0.0,4,Lying,4
2019-01-14,23:21:02,4.4900002,1.4499999,7.8399997,0.02,0.03,0.0,0.02,0.03,0.0,4,Lying,4
2019-01-14,23:21:02,4.53,1.51,7.74,0.02,0.03,0.0,0.02,0.03,0.0,4,Lying,4
2019-01-14,23:21:02,4.53,1.51,7.74,0.01,0.0,0.0,0.01,0.0,0.0,4,Lying,4
2019-01-14,23:21:02,4.5,1.43,7.7999997,0.01,0.0,0.0,0.01,0.0,0.0,4,Lying,4
2019-01-14,23:21:02,4.5,1.43,7.7999997,0.0,0.0,0.01,0.0,0.0,0.01,4,Lying,4
2019-01-14,23:21:02,4.6600003,1.51,7.8999996,0.0,0.0,0.01,0.0,0.0,0.01,4,Lying,4
2019-01-14,23:21:02,4.6600003,1.51,7.8999996,-0.01,-0.04,0.01,-0.01,-0.04,0.01,4,Lying,4
2019-01-14,23:21:02,4.6400003,1.36,7.9399996,-0.01,-0.04,0.01,-0.01,-0.04,0.01,4,Lying,4
2019-01-14,23:21:02,4.6400003,1.36,7.9399996,0.0,-0.04,-0.01,0.0,-0.04,-0.01,4,Lying,4
2019-01-14,23:21:02,4.44,1.48,7.5799994,0.0,-0.04,-0.01,0.0,-0.04,-0.01,4,Lying,4
2019-01-14,23:21:02,4.44,1.48,7.5799994,0.03,0.01,-0.01,0.03,0.01,-0.01,4,Lying,4
2019-01-14,23:21:02,4.61,1.42,7.74,0.03,0.01,-0.01,0.03,0.01,-0.01,4,Lying,4
2019-01-14,23:21:02,4.61,1.42,7.74,0.0,0.0,0.0,0.0,0.0,0.0,4,Lying,4
2019-01-14,23:21:02,4.56,1.52,7.7699995,0.0,0.0,0.0,0.0,0.0,0.0,4,Lying,4
2019-01-14,23:21:02,4.56,1.52,7.7699995,0.0,0.03,0.0,0.0,0.03,0.0,4,Lying,4
2019-01-14,23:21:02,4.4,1.41,7.8799996,0.0,0.03,0.0,0.0,0.03,0.0,4,Lying,4
2019-01-14,23:21:02,4.4,1.41,7.8799996,0.0,0.04,0.0,0.0,0.04,0.0,4,Lying,4
2019-01-14,23:21:02,4.3900003,1.4599999,7.759999799999999,0.0,0.04,0.0,0.0,0.04,0.0,4,Lying,4
2019-01-14,23:21:02,4.3900003,1.4599999,7.759999799999999,0.0,0.0,0.0,0.0,0.0,0.0,4,Lying,4
2019-01-14,23:21:02,4.55,1.4499999,7.7699995,0.0,0.0,0.0,0.0,0.0,0.0,4,Lying,4
2019-01-14,23:21:02,4.55,1.4499999,7.7699995,0.0,-0.01,0.0,0.0,-0.01,0.0,4,Lying,4
2019-01-14,23:21:02,4.55,1.52,7.759999799999999,0.0,-0.01,0.0,0.0,-0.01,0.0,4,Lying,4
2019-01-14,23:21:02,4.55,1.52,7.759999799999999,0.0,0.0,0.0,0.0,0.0,0.0,4,Lying,4
2019-01-14,23:21:02,4.56,1.4499999,7.7799997,0.0,0.0,0.0,0.0,0.0,0.0,4,Lying,4
2019-01-14,23:21:02,4.56,1.4499999,7.7799997,0.0,0.02,0.01,0.0,0.02,0.01,4,Lying,4
2019-01-14,23:21:02,4.46,1.52,7.8599997,0.0,0.02,0.01,0.0,0.02,0.01,4,Lying,4
2019-01-14,23:21:02,4.46,1.52,7.8599997,0.0,0.0,0.0,0.0,0.0,0.0,4,Lying,4
2019-01-14,23:21:02,4.4,1.5,7.7999997,0.0,0.0,0.0,0.0,0.0,0.0,4,Lying,4
2019-01-14,23:21:02,4.4,1.5,7.7999997,0.0,0.0,0.0,0.0,0.0,0.0,4,Lying,4
2019-01-14,23:21:02,4.4700003,1.47,7.8199997,0.0,0.0,0.0,0.0,0.0,0.0,4,Lying,4
2019-01-14,23:21:02,4.4700003,1.47,7.8199997,0.0,-0.02,0.01,0.0,-0.02,0.01,4,Lying,4
2019-01-14,23:21:02,4.51,1.51,7.8299994,0.0,-0.02,0.01,0.0,-0.02,0.01,4,Lying,4
2019-01-14,23:21:02,4.51,1.51,7.8299994,0.0,-0.02,0.01,0.0,-0.02,0.01,4,Lying,4
2019-01-14,23:21:02,4.53,1.51,7.7499994999999995,0.0,-0.02,0.01,0.0,-0.02,0.01,4,Lying,4
2019-01-14,23:21:02,4.53,1.51,7.7499994999999995,0.0,0.0,0.01,0.0,0.0,0.01,4,Lying,4
2019-01-14,23:21:02,4.51,1.4599999,7.809999499999999,0.0,0.0,0.01,0.0,0.0,0.01,4,Lying,4
2019-01-14,23:21:02,4.51,1.4599999,7.809999499999999,0.0,-0.04,0.01,0.0,-0.04,0.01,4,Lying,4
2019-01-14,23:21:02,4.56,1.4399998999999999,7.759999799999999,0.0,-0.04,0.01,0.0,-0.04,0.01,4,Lying,4
2019-01-14,23:21:02,4.56,1.4399998999999999,7.759999799999999,0.01,-0.04,0.01,0.01,-0.04,0.01,4,Lying,4
2019-01-14,23:21:02,4.5,1.43,7.7299995,0.01,-0.04,0.01,0.01,-0.04,0.01,4,Lying,4
2019-01-14,23:21:02,4.5,1.43,7.7299995,0.0,-0.02,0.01,0.0,-0.02,0.01,4,Lying,4
2019-01-14,23:21:03,4.53,1.48,7.6899996,0.0,-0.02,0.01,0.0,-0.02,0.01,4,Lying,4
2019-01-14,23:21:03,4.53,1.48,7.6899996,0.0,-0.04,0.0,0.0,-0.04,0.0,4,Lying,4
2019-01-14,23:21:03,4.62,1.47,7.7999997,0.0,-0.04,0.0,0.0,-0.04,0.0,4,Lying,4
2019-01-14,23:21:03,4.62,1.47,7.7999997,0.0,-0.03,0.0,0.0,-0.03,0.0,4,Lying,4
2019-01-14,23:21:03,4.5,1.54,7.6699996,0.0,-0.03,0.0,0.0,-0.03,0.0,4,Lying,4
2019-01-14,23:21:03,4.5,1.54,7.6699996,0.02,0.0,0.0,0.02,0.0,0.0,4,Lying,4
2019-01-14,23:21:03,4.4500003,1.49,7.6099997,0.02,0.0,0.0,0.02,0.0,0.0,4,Lying,4
2019-01-14,23:21:03,4.4500003,1.49,7.6099997,0.01,-0.02,0.0,0.01,-0.02,0.0,4,Lying,4
2019-01-14,23:21:03,4.7400002,1.42,7.559999499999999,0.01,-0.02,0.0,0.01,-0.02,0.0,4,Lying,4
2019-01-14,23:21:03,4.7400002,1.42,7.559999499999999,-0.01,-0.07,0.02,-0.01,-0.07,0.02,4,Lying,4
2019-01-14,23:21:03,4.71,1.49,7.68,-0.01,-0.07,0.02,-0.01,-0.07,0.02,4,Lying,4
2019-01-14,23:21:03,4.71,1.49,7.68,-0.01,-0.02,0.01,-0.01,-0.02,0.01,4,Lying,4
2019-01-14,23:21:03,4.6,1.41,8.04,-0.01,-0.02,0.01,-0.01,-0.02,0.01,4,Lying,4
2019-01-14,23:21:03,4.6,1.41,8.04,-0.03,0.06,0.0,-0.03,0.06,0.0,4,Lying,4
2019-01-14,23:21:03,4.4300003,1.5,7.93,-0.03,0.06,0.0,-0.03,0.06,0.0,4,Lying,4
2019-01-14,23:21:03,4.4300003,1.5,7.93,0.01,0.03,-0.01,0.01,0.03,-0.01,4,Lying,4
2019-01-14,23:21:03,4.53,1.53,7.8199997,0.01,0.03,-0.01,0.01,0.03,-0.01,4,Lying,4
2019-01-14,23:21:03,4.53,1.53,7.8199997,0.03,-0.04,-0.02,0.03,-0.04,-0.02,4,Lying,4
2019-01-14,23:21:03,4.89,1.49,7.93,0.03,-0.04,-0.02,0.03,-0.04,-0.02,4,Lying,4
2019-01-14,23:21:03,4.89,1.49,7.93,0.02,-0.04,-0.01,0.02,-0.04,-0.01,4,Lying,4
2019-01-14,23:21:03,4.01,1.5899999,7.2499994999999995,0.02,-0.04,-0.01,0.02,-0.04,-0.01,4,Lying,4
2019-01-14,23:21:03,4.01,1.5899999,7.2499994999999995,0.06,-0.02,-0.049999997000000004,0.06,-0.02,-0.049999997000000004,4,Lying,4
2019-01-14,23:21:03,4.62,1.4399998999999999,7.66,0.06,-0.02,-0.049999997000000004,0.06,-0.02,-0.049999997000000004,4,Lying,4
2019-01-14,23:21:03,4.62,1.4399998999999999,7.66,-0.03,-0.049999997000000004,0.01,-0.03,-0.049999997000000004,0.01,4,Lying,4
2019-01-14,23:21:03,4.75,1.55,8.049999,-0.04,-0.049999997000000004,0.02,-0.04,-0.049999997000000004,0.02,4,Lying,4
2019-01-14,23:21:03,4.75,1.55,8.049999,-0.04,-0.049999997000000004,0.02,-0.04,-0.049999997000000004,0.02,4,Lying,4
2019-01-14,23:21:03,4.6,1.48,7.95,-0.04,-0.049999997000000004,0.02,-0.04,-0.049999997000000004,0.02,4,Lying,4
2019-01-14,23:21:03,4.6,1.48,7.95,0.0,0.03,0.0,0.0,0.03,0.0,4,Lying,4
2019-01-14,23:21:03,4.35,1.48,7.6299996,0.0,0.03,0.0,0.0,0.03,0.0,4,Lying,4
2019-01-14,23:21:03,4.35,1.48,7.6299996,0.04,0.04,-0.01,0.04,0.04,-0.01,4,Lying,4
2019-01-14,23:21:03,4.59,1.6499999,7.4799995,0.04,0.04,-0.01,0.04,0.04,-0.01,4,Lying,4
2019-01-14,23:21:03,4.59,1.6499999,7.4799995,0.03,-0.089999996,-0.03,0.03,-0.089999996,-0.03,4,Lying,4
2019-01-14,23:21:03,4.42,1.54,7.5899997,0.03,-0.089999996,-0.03,0.03,-0.089999996,-0.03,4,Lying,4
2019-01-14,23:21:03,4.42,1.54,7.5899997,-0.02,-0.01,0.0,-0.02,-0.01,0.0,4,Lying,4
2019-01-14,23:21:03,4.58,1.48,7.7999997,-0.02,-0.01,0.0,-0.02,-0.01,0.0,4,Lying,4
2019-01-14,23:21:03,4.58,1.48,7.7999997,-0.04,0.01,0.03,-0.04,0.01,0.03,4,Lying,4
2019-01-14,23:21:03,4.76,1.43,8.03,-0.04,0.01,0.03,-0.04,0.01,0.03,4,Lying,4
2019-01-14,23:21:03,4.76,1.43,8.03,-0.04,0.0,0.02,-0.04,0.0,0.02,4,Lying,4
2019-01-14,23:21:03,4.44,1.5799999,7.66,-0.04,0.0,0.02,-0.04,0.0,0.02,4,Lying,4
2019-01-14,23:21:03,4.44,1.5799999,7.66,0.02,-0.01,-0.01,0.02,-0.01,-0.01,4,Lying,4
2019-01-14,23:21:03,4.4700003,1.5699999,7.6299996,0.02,-0.01,-0.01,0.02,-0.01,-0.01,4,Lying,4
2019-01-14,23:21:03,4.4700003,1.5699999,7.6299996,0.0,0.01,0.01,0.0,0.01,0.01,4,Lying,4
2019-01-14,23:21:03,4.55,1.48,7.809999499999999,0.0,0.01,0.01,0.0,0.01,0.01,4,Lying,4
2019-01-14,23:21:03,4.55,1.48,7.809999499999999,-0.03,0.0,0.03,-0.03,0.0,0.03,4,Lying,4
2019-01-14,23:21:03,4.59,1.4,7.8599997,-0.03,0.0,0.03,-0.03,0.0,0.03,4,Lying,4
2019-01-14,23:21:04,4.59,1.4,7.8599997,-0.01,-0.03,0.02,-0.01,-0.03,0.02,4,Lying,4
2019-01-14,23:21:04,4.48,1.54,7.7,-0.01,-0.03,0.02,-0.01,-0.03,0.02,4,Lying,4
2019-01-14,23:21:04,4.48,1.54,7.7,0.049999997000000004,0.03,0.0,0.049999997000000004,0.03,0.0,4,Lying,4
2019-01-14,23:21:04,4.28,1.56,7.41,0.049999997000000004,0.03,0.0,0.049999997000000004,0.03,0.0,4,Lying,4
2019-01-14,23:21:04,4.28,1.56,7.41,0.08,0.01,-0.03,0.08,0.01,-0.03,4,Lying,4
2019-01-14,23:21:04,4.56,1.6399999,7.5199995,0.08,0.01,-0.03,0.08,0.01,-0.03,4,Lying,4
2019-01-14,23:21:04,4.56,1.6399999,7.5199995,0.0,-0.02,0.01,0.0,-0.02,0.01,4,Lying,4
2019-01-14,23:21:04,4.89,1.48,8.15,0.0,-0.02,0.01,0.0,-0.02,0.01,4,Lying,4
2019-01-14,23:21:04,4.89,1.48,8.15,-0.02,0.0,0.03,-0.02,0.0,0.03,4,Lying,4
2019-01-14,23:21:04,4.2000003,1.55,7.599999400000001,-0.02,0.0,0.03,-0.02,0.0,0.03,4,Lying,4
2019-01-14,23:21:04,4.2000003,1.55,7.599999400000001,0.02,0.07,0.0,0.02,0.07,0.0,4,Lying,4
2019-01-14,23:21:04,4.44,1.52,7.7499994999999995,0.02,0.07,0.0,0.02,0.07,0.0,4,Lying,4
2019-01-14,23:21:04,4.44,1.52,7.7499994999999995,-0.01,0.0,0.01,-0.01,0.0,0.01,4,Lying,4
2019-01-14,23:21:04,4.9,1.55,7.9399996,-0.01,0.0,0.01,-0.01,0.0,0.01,4,Lying,4
2019-01-14,23:21:04,4.9,1.55,7.9399996,-0.049999997000000004,-0.11,0.02,-0.049999997000000004,-0.11,0.02,4,Lying,4
2019-01-14,23:21:04,4.37,1.48,7.3599997,-0.049999997000000004,-0.11,0.02,-0.049999997000000004,-0.11,0.02,4,Lying,4
2019-01-14,23:21:04,4.37,1.48,7.3599997,-0.01,-0.03,0.0,-0.01,-0.03,0.0,4,Lying,4
2019-01-14,23:21:04,4.9500003,1.35,7.849999400000001,-0.01,-0.03,0.0,-0.01,-0.03,0.0,4,Lying,4
2019-01-14,23:21:04,4.9500003,1.35,7.849999400000001,-0.03,-0.089999996,0.03,-0.03,-0.089999996,0.03,4,Lying,4
2019-01-14,23:21:04,4.4,1.42,7.64,0.0,0.03,0.02,0.0,0.03,0.02,4,Lying,4
2019-01-14,23:21:04,4.4,1.42,7.64,0.0,0.03,0.02,0.0,0.03,0.02,4,Lying,4
2019-01-14,23:21:04,4.4900002,1.6099999,7.7099996,0.0,0.03,0.02,0.0,0.03,0.02,4,Lying,4
2019-01-14,23:21:04,4.4900002,1.6099999,7.7099996,0.02,0.03,0.01,0.02,0.03,0.01,4,Lying,4
2019-01-14,23:21:04,4.6,1.6099999,7.7499994999999995,0.02,0.03,0.01,0.02,0.03,0.01,4,Lying,4
2019-01-14,23:21:04,4.6,1.6099999,7.7499994999999995,-0.04,0.02,0.01,-0.04,0.02,0.01,4,Lying,4
2019-01-14,23:21:04,4.54,1.38,7.8199997,-0.04,0.02,0.01,-0.04,0.02,0.01,4,Lying,4
2019-01-14,23:21:04,4.54,1.38,7.8199997,-0.049999997000000004,-0.01,0.02,-0.049999997000000004,-0.01,0.02,4,Lying,4
2019-01-14,23:21:04,4.4700003,1.4,7.64,-0.049999997000000004,-0.01,0.02,-0.049999997000000004,-0.01,0.02,4,Lying,4
2019-01-14,23:21:04,4.4700003,1.4,7.64,-0.01,0.0,0.02,-0.01,0.0,0.02,4,Lying,4
2019-01-14,23:21:04,4.4700003,1.4,7.5699997,-0.01,0.0,0.02,-0.01,0.0,0.02,4,Lying,4
2019-01-14,23:21:04,4.4700003,1.4,7.5699997,-0.01,0.0,0.02,-0.01,0.0,0.02,4,Lying,4
2019-01-14,23:21:04,4.51,1.35,7.809999499999999,-0.01,0.0,0.02,-0.01,0.0,0.02,4,Lying,4
2019-01-14,23:21:04,4.51,1.35,7.809999499999999,-0.049999997000000004,0.0,0.049999997000000004,-0.049999997000000004,0.0,0.049999997000000004,4,Lying,4
2019-01-14,23:21:04,4.89,1.24,8.23,-0.049999997000000004,0.0,0.049999997000000004,-0.049999997000000004,0.0,0.049999997000000004,4,Lying,4
2019-01-14,23:21:04,4.89,1.24,8.23,-0.06,0.01,0.06,-0.06,0.01,0.06,4,Lying,4
2019-01-14,23:21:04,4.6,1.34,7.72,-0.06,0.01,0.06,-0.06,0.01,0.06,4,Lying,4
2019-01-14,23:21:04,4.6,1.34,7.72,0.02,0.0,0.0,0.02,0.0,0.0,4,Lying,4
2019-01-14,23:21:04,4.58,1.37,7.5799994,0.02,0.0,0.0,0.02,0.0,0.0,4,Lying,4
2019-01-14,23:21:04,4.58,1.37,7.5799994,0.03,-0.04,-0.01,0.03,-0.04,-0.01,4,Lying,4
2019-01-14,23:21:04,4.61,1.42,7.5899997,0.03,-0.04,-0.01,0.03,-0.04,-0.01,4,Lying,4
2019-01-14,23:21:04,4.61,1.42,7.5899997,0.02,-0.01,0.0,0.02,-0.01,0.0,4,Lying,4
2019-01-14,23:21:04,4.52,1.39,7.9399996,0.02,-0.01,0.0,0.02,-0.01,0.0,4,Lying,4
2019-01-14,23:21:04,4.52,1.39,7.9399996,0.0,0.049999997000000004,0.0,0.0,0.049999997000000004,0.0,4,Lying,4
2019-01-14,23:21:04,4.44,1.35,7.91,0.0,0.049999997000000004,0.0,0.0,0.049999997000000004,0.0,4,Lying,4
2019-01-14,23:21:04,4.44,1.35,7.91,0.0,0.04,0.01,0.0,0.04,0.01,4,Lying,4
2019-01-14,23:21:04,4.63,1.47,7.8199997,0.0,0.04,0.01,0.0,0.04,0.01,4,Lying,4
2019-01-14,23:21:05,4.63,1.47,7.8199997,0.01,-0.01,0.01,0.01,-0.01,0.01,4,Lying,4
2019-01-14,23:21:05,4.4300003,1.51,7.7899994999999995,0.01,-0.01,0.01,0.01,-0.01,0.01,4,Lying,4
2019-01-14,23:21:05,4.4300003,1.51,7.7899994999999995,0.0,0.03,0.0,0.0,0.03,0.0,4,Lying,4
2019-01-14,23:21:05,4.63,1.38,7.91,0.0,0.03,0.0,0.0,0.03,0.0,4,Lying,4
2019-01-14,23:21:05,4.63,1.38,7.91,-0.02,-0.049999997000000004,0.02,-0.02,-0.049999997000000004,0.02,4,Lying,4
2019-01-14,23:21:05,4.61,1.29,7.8599997,-0.02,-0.049999997000000004,0.02,-0.02,-0.049999997000000004,0.02,4,Lying,4
2019-01-14,23:21:05,4.61,1.29,7.8599997,-0.01,-0.01,0.01,-0.01,-0.01,0.01,4,Lying,4
2019-01-14,23:21:05,4.4500003,1.31,7.759999799999999,-0.01,-0.01,0.01,-0.01,-0.01,0.01,4,Lying,4
2019-01-14,23:21:05,4.4500003,1.31,7.759999799999999,0.0,0.01,0.0,0.0,0.01,0.0,4,Lying,4
2019-01-14,23:21:05,4.61,1.3,7.849999400000001,0.0,0.01,0.0,0.0,0.01,0.0,4,Lying,4
2019-01-14,23:21:05,4.61,1.3,7.849999400000001,0.0,-0.01,0.0,0.0,-0.01,0.0,4,Lying,4
2019-01-14,23:21:05,4.76,1.26,7.95,0.0,-0.01,0.0,0.0,-0.01,0.0,4,Lying,4
2019-01-14,23:21:05,4.76,1.26,7.95,0.0,0.01,0.01,0.0,0.01,0.01,4,Lying,4
2019-01-14,23:21:05,4.56,1.34,7.8699994,0.0,0.01,0.01,0.0,0.01,0.01,4,Lying,4
2019-01-14,23:21:05,4.56,1.34,7.8699994,0.02,0.049999997000000004,0.0,0.02,0.049999997000000004,0.0,4,Lying,4
2019-01-14,23:21:05,4.36,1.34,7.7799997,0.02,0.049999997000000004,0.0,0.02,0.049999997000000004,0.0,4,Lying,4
2019-01-14,23:21:05,4.36,1.34,7.7799997,0.02,0.049999997000000004,-0.01,0.02,0.049999997000000004,-0.01,4,Lying,4
2019-01-14,23:21:05,4.51,1.47,7.8299994,0.02,0.049999997000000004,-0.01,0.02,0.049999997000000004,-0.01,4,Lying,4
2019-01-14,23:21:05,4.51,1.47,7.8299994,0.01,0.0,0.0,0.01,0.0,0.0,4,Lying,4
2019-01-14,23:21:05,4.56,1.42,7.8299994,0.01,0.0,0.0,0.01,0.0,0.0,4,Lying,4
2019-01-14,23:21:05,4.56,1.42,7.8299994,0.0,-0.01,0.0,0.0,-0.01,0.0,4,Lying,4
2019-01-14,23:21:05,4.53,1.4499999,7.8599997,0.0,-0.01,0.0,0.0,-0.01,0.0,4,Lying,4
2019-01-14,23:21:05,4.53,1.4499999,7.8599997,0.0,0.0,0.0,0.0,0.0,0.0,4,Lying,4
2019-01-14,23:21:05,4.4300003,1.34,7.9199996,0.0,0.0,0.0,0.0,0.0,0.0,4,Lying,4
2019-01-14,23:21:05,4.4300003,1.34,7.9199996,0.0,0.02,0.0,0.0,0.02,0.0,4,Lying,4
2019-01-14,23:21:05,4.5,1.42,7.7699995,0.0,0.02,0.0,0.0,0.02,0.0,4,Lying,4
2019-01-14,23:21:05,4.5,1.42,7.7699995,0.0,-0.07,0.0,0.0,-0.07,0.0,4,Lying,4
2019-01-14,23:21:05,4.6,1.39,7.7899994999999995,0.0,-0.07,0.0,0.0,-0.07,0.0,4,Lying,4
2019-01-14,23:21:05,4.6,1.39,7.7899994999999995,0.0,-0.049999997000000004,0.01,0.0,-0.049999997000000004,0.01,4,Lying,4
2019-01-14,23:21:05,4.46,1.38,7.5799994,0.0,-0.049999997000000004,0.01,0.0,-0.049999997000000004,0.01,4,Lying,4
2019-01-14,23:21:05,4.46,1.38,7.5799994,0.01,-0.01,0.0,0.01,-0.01,0.0,4,Lying,4
2019-01-14,23:21:05,4.48,1.36,7.6499996,0.01,-0.01,0.0,0.01,-0.01,0.0,4,Lying,4
2019-01-14,23:21:05,4.48,1.36,7.6499996,0.0,-0.02,0.0,0.0,-0.02,0.0,4,Lying,4
2019-01-14,23:21:05,4.8,1.28,8.08,0.0,-0.02,0.0,0.0,-0.02,0.0,4,Lying,4
2019-01-14,23:21:05,4.8,1.28,8.08,-0.02,0.0,0.02,-0.02,0.0,0.02,4,Lying,4
2019-01-14,23:21:05,4.35,1.3199999,7.9399996,-0.02,0.0,0.02,-0.02,0.0,0.02,4,Lying,4
2019-01-14,23:21:05,4.35,1.3199999,7.9399996,0.01,0.08,-0.01,0.01,0.08,-0.01,4,Lying,4
2019-01-14,23:21:05,4.26,1.53,7.6899996,0.01,0.08,-0.01,0.01,0.08,-0.01,4,Lying,4
2019-01-14,23:21:05,4.26,1.53,7.6899996,0.01,0.0,-0.01,0.01,0.0,-0.01,4,Lying,4
2019-01-14,23:21:05,4.6600003,1.4399998999999999,7.95,0.01,0.0,-0.01,0.01,0.0,-0.01,4,Lying,4
2019-01-14,23:21:05,4.6600003,1.4399998999999999,7.95,-0.04,-0.03,0.02,-0.04,-0.03,0.02,4,Lying,4
2019-01-14,23:21:05,4.57,1.4399998999999999,7.8199997,-0.04,-0.03,0.02,-0.04,-0.03,0.02,4,Lying,4
2019-01-14,23:21:05,4.57,1.4399998999999999,7.8199997,-0.03,-0.04,0.0,-0.03,-0.04,0.0,4,Lying,4
2019-01-14,23:21:05,4.63,1.31,7.509999799999999,-0.03,-0.04,0.0,-0.03,-0.04,0.0,4,Lying,4
2019-01-14,23:21:05,4.63,1.31,7.509999799999999,0.0,-0.11,0.0,0.0,-0.11,0.0,4,Lying,4
2019-01-14,23:21:06,5.17,1.39,8.15,0.0,-0.07,0.01,0.0,-0.07,0.01,4,Lying,4
2019-01-14,23:21:06,5.17,1.39,8.15,0.0,-0.07,0.01,0.0,-0.07,0.01,4,Lying,4
2019-01-14,23:21:06,4.25,1.52,7.3599997,0.0,-0.07,0.01,0.0,-0.07,0.01,4,Lying,4
2019-01-14,23:21:06,4.25,1.52,7.3599997,0.049999997000000004,0.11,-0.04,0.049999997000000004,0.11,-0.04,4,Lying,4
2019-01-14,23:21:06,4.82,1.24,8.37,0.049999997000000004,0.11,-0.04,0.049999997000000004,0.11,-0.04,4,Lying,4
2019-01-14,23:21:06,4.82,1.24,8.37,-0.04,-0.01,0.02,-0.04,-0.01,0.02,4,Lying,4
2019-01-14,23:21:06,4.55,1.36,8.03,-0.04,-0.01,0.02,-0.04,-0.01,0.02,4,Lying,4
2019-01-14,23:21:06,4.55,1.36,8.03,0.0,0.0,0.02,0.0,0.0,0.02,4,Lying,4
2019-01-14,23:21:06,4.42,1.4399998999999999,7.809999499999999,0.0,0.0,0.02,0.0,0.0,0.02,4,Lying,4
2019-01-14,23:21:06,4.42,1.4399998999999999,7.809999499999999,0.03,-0.03,-0.02,0.03,-0.03,-0.02,4,Lying,4
2019-01-14,23:21:06,4.42,1.3199999,7.74,0.03,-0.03,-0.02,0.03,-0.03,-0.02,4,Lying,4
2019-01-14,23:21:06,4.42,1.3199999,7.74,0.01,-0.04,0.0,0.01,-0.04,0.0,4,Lying,4
2019-01-14,23:21:06,4.71,1.41,7.64,0.01,-0.04,0.0,0.01,-0.04,0.0,4,Lying,4
2019-01-14,23:21:06,4.71,1.41,7.64,0.01,-0.04,0.0,0.01,-0.04,0.0,4,Lying,4
2019-01-14,23:21:06,4.56,1.4599999,7.7299995,0.01,-0.04,0.0,0.01,-0.04,0.0,4,Lying,4
2019-01-14,23:21:06,4.56,1.4599999,7.7299995,0.0,0.02,0.0,0.0,0.02,0.0,4,Lying,4
2019-01-14,23:21:06,4.52,1.4599999,7.9199996,0.0,0.02,0.0,0.0,0.02,0.0,4,Lying,4
2019-01-14,23:21:06,4.52,1.4599999,7.9199996,0.0,0.01,-0.01,0.0,0.01,-0.01,4,Lying,4
2019-01-14,23:21:06,4.51,1.54,7.7799997,0.0,0.01,-0.01,0.0,0.01,-0.01,4,Lying,4
2019-01-14,23:21:06,4.51,1.54,7.7799997,0.03,-0.02,-0.01,0.03,-0.02,-0.01,4,Lying,4
2019-01-14,23:21:06,4.5,1.42,7.7299995,0.03,-0.02,-0.01,0.03,-0.02,-0.01,4,Lying,4
2019-01-14,23:21:06,4.5,1.42,7.7299995,0.02,0.0,0.0,0.02,0.0,0.0,4,Lying,4
2019-01-14,23:21:06,4.3900003,1.41,7.7499994999999995,0.02,0.0,0.0,0.02,0.0,0.0,4,Lying,4
2019-01-14,23:21:06,4.3900003,1.41,7.7499994999999995,0.0,0.01,0.0,0.0,0.01,0.0,4,Lying,4
2019-01-14,23:21:06,4.58,1.39,7.7499994999999995,0.0,0.01,0.0,0.0,0.01,0.0,4,Lying,4
2019-01-14,23:21:06,4.58,1.39,7.7499994999999995,0.0,-0.01,0.01,0.0,-0.01,0.01,4,Lying,4
2019-01-14,23:21:06,4.73,1.4499999,7.8399997,0.0,-0.01,0.01,0.0,-0.01,0.01,4,Lying,4
2019-01-14,23:21:06,4.73,1.4499999,7.8399997,0.0,-0.03,0.0,0.0,-0.03,0.0,4,Lying,4
2019-01-14,23:21:06,4.4100003,1.4499999,7.7099996,0.0,-0.03,0.0,0.0,-0.03,0.0,4,Lying,4
2019-01-14,23:21:06,4.4100003,1.4499999,7.7099996,0.02,0.02,-0.01,0.02,0.02,-0.01,4,Lying,4
2019-01-14,23:21:06,4.58,1.39,7.8399997,0.02,0.02,-0.01,0.02,0.02,-0.01,4,Lying,4
2019-01-14,23:21:06,4.58,1.39,7.8399997,0.01,-0.01,0.0,0.01,-0.01,0.0,4,Lying,4
2019-01-14,23:21:06,4.4700003,1.5,7.64,0.01,-0.01,0.0,0.01,-0.01,0.0,4,Lying,4
2019-01-14,23:21:06,4.4700003,1.5,7.64,0.01,0.0,0.0,0.01,0.0,0.0,4,Lying,4
2019-01-14,23:21:06,4.51,1.41,8.009999,0.01,0.0,0.0,0.01,0.0,0.0,4,Lying,4
2019-01-14,23:21:06,4.51,1.41,8.009999,-0.04,0.0,0.01,-0.04,0.0,0.01,4,Lying,4
2019-01-14,23:21:06,4.67,1.54,7.849999400000001,-0.04,0.0,0.01,-0.04,0.0,0.01,4,Lying,4
2019-01-14,23:21:06,4.67,1.54,7.849999400000001,0.0,-0.02,0.0,0.0,-0.02,0.0,4,Lying,4
2019-01-14,23:21:06,4.9100003,1.48,7.8399997,0.0,-0.02,0.0,0.0,-0.02,0.0,4,Lying,4
2019-01-14,23:21:06,4.9100003,1.48,7.8399997,0.0,-0.02,0.0,0.0,-0.02,0.0,4,Lying,4
2019-01-14,23:21:06,4.1800003,1.47,7.2299995,0.0,-0.02,0.0,0.0,-0.02,0.0,4,Lying,4
2019-01-14,23:21:06,4.1800003,1.47,7.2299995,0.06,0.0,-0.04,0.06,0.0,-0.04,4,Lying,4
2019-01-14,23:21:06,4.46,1.38,7.7299995,0.06,0.0,-0.04,0.06,0.0,-0.04,4,Lying,4
2019-01-14,23:21:06,4.46,1.38,7.7299995,-0.01,-0.01,0.02,-0.01,-0.01,0.02,4,Lying,4
2019-01-14,23:21:06,4.4700003,1.4,7.5199995,-0.01,-0.01,0.02,-0.01,-0.01,0.02,4,Lying,4
2019-01-14,23:21:07,4.4700003,1.4,7.5199995,0.0,0.0,0.02,0.0,0.0,0.02,4,Lying,4
2019-01-14,23:21:07,4.98,1.52,8.28,0.0,0.0,0.02,0.0,0.0,0.02,4,Lying,4
2019-01-14,23:21:07,4.98,1.52,8.28,-0.01,0.0,0.0,-0.01,0.0,0.0,4,Lying,4
2019-01-14,23:21:07,4.29,1.52,8.089999,-0.01,0.0,0.0,-0.01,0.0,0.0,4,Lying,4
2019-01-14,23:21:07,4.29,1.52,8.089999,0.01,0.08,-0.049999997000000004,0.01,0.08,-0.049999997000000004,4,Lying,4
2019-01-14,23:21:07,4.75,1.48,7.8299994,0.01,0.08,-0.049999997000000004,0.01,0.08,-0.049999997000000004,4,Lying,4
2019-01-14,23:21:07,4.75,1.48,7.8299994,0.01,-0.049999997000000004,0.02,0.01,-0.049999997000000004,0.02,4,Lying,4
2019-01-14,23:21:07,4.48,1.53,7.45,0.01,-0.049999997000000004,0.02,0.01,-0.049999997000000004,0.02,4,Lying,4
2019-01-14,23:21:07,4.48,1.53,7.45,0.01,-0.03,0.02,0.01,-0.03,0.02,4,Lying,4
2019-01-14,23:21:07,4.85,1.36,7.9399996,0.01,-0.03,0.02,0.01,-0.03,0.02,4,Lying,4
2019-01-14,23:21:07,4.85,1.36,7.9399996,-0.04,-0.049999997000000004,0.02,-0.04,-0.049999997000000004,0.02,4,Lying,4
2019-01-14,23:21:07,4.29,1.55,7.559999499999999,-0.04,-0.049999997000000004,0.02,-0.04,-0.049999997000000004,0.02,4,Lying,4
2019-01-14,23:21:07,4.29,1.55,7.559999499999999,0.049999997000000004,0.04,-0.049999997000000004,0.049999997000000004,0.04,-0.049999997000000004,4,Lying,4
2019-01-14,23:21:07,4.31,1.4599999,7.6299996,0.049999997000000004,0.04,-0.049999997000000004,0.049999997000000004,0.04,-0.049999997000000004,4,Lying,4
2019-01-14,23:21:07,4.31,1.4599999,7.6299996,0.0,0.0,0.0,0.0,0.0,0.0,4,Lying,4
2019-01-14,23:21:07,4.48,1.38,7.66,0.0,0.0,0.0,0.0,0.0,0.0,4,Lying,4
2019-01-14,23:21:07,4.48,1.38,7.66,0.0,-0.03,0.02,0.0,-0.03,0.02,4,Lying,4
2019-01-14,23:21:07,4.6800003,1.41,7.68,0.0,-0.03,0.02,0.0,-0.03,0.02,4,Lying,4
2019-01-14,23:21:07,4.6800003,1.41,7.68,-0.03,-0.049999997000000004,0.04,-0.03,-0.049999997000000004,0.04,4,Lying,4
2019-01-14,23:21:07,4.6800003,1.52,7.8799996,-0.03,-0.049999997000000004,0.04,-0.03,-0.049999997000000004,0.04,4,Lying,4
2019-01-14,23:21:07,4.6800003,1.52,7.8799996,-0.02,0.03,0.01,-0.02,0.03,0.01,4,Lying,4
2019-01-14,23:21:07,4.51,1.4499999,7.8599997,-0.02,0.03,0.01,-0.02,0.03,0.01,4,Lying,4
2019-01-14,23:21:07,4.51,1.4499999,7.8599997,0.01,0.01,-0.02,0.01,0.01,-0.02,4,Lying,4
2019-01-14,23:21:07,4.48,1.5,7.759999799999999,0.01,0.01,-0.02,0.01,0.01,-0.02,4,Lying,4
2019-01-14,23:21:07,4.48,1.5,7.759999799999999,0.02,0.0,0.01,0.02,0.0,0.01,4,Lying,4
2019-01-14,23:21:07,4.69,1.47,7.849999400000001,0.02,0.0,0.01,0.02,0.0,0.01,4,Lying,4
2019-01-14,23:21:07,4.69,1.47,7.849999400000001,0.01,-0.02,0.0,0.01,-0.02,0.0,4,Lying,4
2019-01-14,23:21:07,4.48,1.52,7.5299997,0.01,-0.02,0.0,0.01,-0.02,0.0,4,Lying,4
2019-01-14,23:21:07,4.48,1.52,7.5299997,0.0,-0.03,-0.02,0.0,-0.03,-0.02,4,Lying,4
2019-01-14,23:21:07,4.69,1.49,7.6699996,0.0,-0.03,-0.02,0.0,-0.03,-0.02,4,Lying,4
2019-01-14,23:21:07,4.69,1.49,7.6699996,0.0,-0.04,0.0,0.0,-0.04,0.0,4,Lying,4
2019-01-14,23:21:07,4.54,1.42,7.89,0.0,-0.04,0.0,0.0,-0.04,0.0,4,Lying,4
2019-01-14,23:21:07,4.54,1.42,7.89,0.01,0.03,-0.01,0.01,0.03,-0.01,4,Lying,4
2019-01-14,23:21:07,4.42,1.4399998999999999,7.7999997,0.01,0.03,-0.01,0.01,0.03,-0.01,4,Lying,4
2019-01-14,23:21:07,4.42,1.4399998999999999,7.7999997,0.03,0.03,-0.01,0.03,0.03,-0.01,4,Lying,4
2019-01-14,23:21:07,4.42,1.4399998999999999,7.7999997,0.03,0.03,-0.01,0.03,0.03,-0.01,4,Lying,4
2019-01-14,23:21:07,4.54,1.51,7.7499994999999995,0.03,0.03,-0.01,0.03,0.03,-0.01,4,Lying,4
2019-01-14,23:21:07,4.54,1.51,7.7499994999999995,0.0,-0.06,0.0,0.0,-0.06,0.0,4,Lying,4
2019-01-14,23:21:07,4.54,1.53,7.5399994999999995,0.0,-0.06,0.0,0.0,-0.06,0.0,4,Lying,4
2019-01-14,23:21:07,4.54,1.53,7.5399994999999995,0.0,-0.03,0.0,0.0,-0.03,0.0,4,Lying,4
2019-01-14,23:21:07,4.63,1.4599999,7.7299995,0.0,-0.03,0.0,0.0,-0.03,0.0,4,Lying,4
2019-01-14,23:21:07,4.63,1.4599999,7.7299995,0.0,0.0,0.0,0.0,0.0,0.0,4,Lying,4
2019-01-14,23:21:07,4.62,1.39,7.8699994,0.0,0.0,0.0,0.0,0.0,0.0,4,Lying,4
2019-01-14,23:21:07,4.62,1.39,7.8699994,-0.01,0.0,0.01,-0.01,0.0,0.01,4,Lying,4
2019-01-14,23:21:08,4.54,1.47,7.6899996,-0.01,0.0,0.01,-0.01,0.0,0.01,4,Lying,4
2019-01-14,23:21:08,4.54,1.47,7.6899996,0.01,0.0,0.0,0.01,0.0,0.0,4,Lying,4
2019-01-14,23:21:08,4.4900002,1.47,7.7099996,0.01,0.0,0.0,0.01,0.0,0.0,4,Lying,4
2019-01-14,23:21:08,4.4900002,1.47,7.7099996,-0.02,-0.01,0.0,-0.02,-0.01,0.0,4,Lying,4
2019-01-14,23:21:08,4.62,1.5,7.7699995,-0.02,-0.01,0.0,-0.02,-0.01,0.0,4,Lying,4
2019-01-14,23:21:08,4.62,1.5,7.7699995,-0.01,-0.02,0.01,-0.01,-0.02,0.01,4,Lying,4
2019-01-14,23:21:08,4.71,1.4399998999999999,7.7699995,-0.01,-0.02,0.01,-0.01,-0.02,0.01,4,Lying,4
2019-01-14,23:21:08,4.71,1.4399998999999999,7.7699995,0.01,-0.01,0.0,0.01,-0.01,0.0,4,Lying,4
2019-01-14,23:21:08,4.46,1.51,7.5699997,0.01,-0.01,0.0,0.01,-0.01,0.0,4,Lying,4
2019-01-14,23:21:08,4.46,1.51,7.5699997,0.04,0.01,0.0,0.04,0.01,0.0,4,Lying,4
2019-01-14,23:21:08,4.71,1.4399998999999999,7.7999997,0.04,0.01,0.0,0.04,0.01,0.0,4,Lying,4
2019-01-14,23:21:08,4.71,1.4399998999999999,7.7999997,0.0,0.01,0.01,0.0,0.01,0.01,4,Lying,4
2019-01-14,23:21:08,4.26,1.4499999,7.559999499999999,0.0,0.01,0.01,0.0,0.01,0.01,4,Lying,4
2019-01-14,23:21:08,4.26,1.4499999,7.559999499999999,0.0,0.01,0.0,0.0,0.01,0.0,4,Lying,4
2019-01-14,23:21:08,4.69,1.41,8.08,0.0,0.01,0.0,0.0,0.01,0.0,4,Lying,4
2019-01-14,23:21:08,4.69,1.41,8.08,-0.02,-0.02,0.02,-0.02,-0.02,0.02,4,Lying,4
2019-01-14,23:21:08,4.61,1.49,7.5799994,-0.02,-0.02,0.02,-0.02,-0.02,0.02,4,Lying,4
2019-01-14,23:21:08,4.61,1.49,7.5799994,0.02,-0.01,0.0,0.02,-0.01,0.0,4,Lying,4
2019-01-14,23:21:08,4.78,1.4599999,7.849999400000001,0.02,-0.01,0.0,0.02,-0.01,0.0,4,Lying,4
2019-01-14,23:21:08,4.78,1.4599999,7.849999400000001,0.0,-0.01,0.01,0.0,-0.01,0.01,4,Lying,4
2019-01-14,23:21:08,4.46,1.43,7.7,0.0,-0.01,0.01,0.0,-0.01,0.01,4,Lying,4
2019-01-14,23:21:08,4.46,1.43,7.7,0.01,0.02,0.0,0.01,0.02,0.0,4,Lying,4
2019-01-14,23:21:08,4.37,1.43,7.66,0.01,0.02,0.0,0.01,0.02,0.0,4,Lying,4
2019-01-14,23:21:08,4.37,1.43,7.66,0.01,0.04,0.01,0.01,0.04,0.01,4,Lying,4
2019-01-14,23:21:08,4.6,1.54,7.809999499999999,0.01,0.04,0.01,0.01,0.04,0.01,4,Lying,4
2019-01-14,23:21:08,4.6,1.54,7.809999499999999,0.0,0.01,0.02,0.0,0.01,0.02,4,Lying,4
2019-01-14,23:21:08,4.4900002,1.5,7.7899994999999995,0.0,0.01,0.02,0.0,0.01,0.02,4,Lying,4
2019-01-14,23:21:08,4.4900002,1.5,7.7899994999999995,0.0,0.02,0.0,0.0,0.02,0.0,4,Lying,4
2019-01-14,23:21:08,4.4100003,1.6399999,7.5899997,0.0,0.02,0.0,0.0,0.02,0.0,4,Lying,4
2019-01-14,23:21:08,4.4100003,1.6399999,7.5899997,0.0,0.0,0.0,0.0,0.0,0.0,4,Lying,4
2019-01-14,23:21:08,4.65,1.42,7.8699994,0.0,0.0,0.0,0.0,0.0,0.0,4,Lying,4
2019-01-14,23:21:08,4.65,1.42,7.8699994,-0.03,-0.02,0.02,-0.03,-0.02,0.02,4,Lying,4
2019-01-14,23:21:08,4.48,1.42,7.72,-0.03,-0.02,0.02,-0.03,-0.02,0.02,4,Lying,4
2019-01-14,23:21:08,4.48,1.42,7.72,0.01,0.0,0.0,0.01,0.0,0.0,4,Lying,4
2019-01-14,23:21:08,4.51,1.4399998999999999,7.72,0.01,0.0,0.0,0.01,0.0,0.0,4,Lying,4
2019-01-14,23:21:08,4.51,1.4399998999999999,7.72,0.0,0.02,0.02,0.0,0.02,0.02,4,Lying,4
2019-01-14,23:21:08,4.44,1.56,7.64,0.0,0.02,0.02,0.0,0.02,0.02,4,Lying,4
2019-01-14,23:21:08,4.44,1.56,7.64,-0.01,0.0,0.01,-0.01,0.0,0.01,4,Lying,4
2019-01-14,23:21:08,4.4700003,1.38,8.0,-0.01,0.0,0.01,-0.01,0.0,0.01,4,Lying,4
2019-01-14,23:21:08,4.4700003,1.38,8.0,-0.02,0.04,0.02,-0.02,0.04,0.02,4,Lying,4
2019-01-14,23:21:08,4.4100003,1.54,7.7099996,-0.02,0.04,0.02,-0.02,0.04,0.02,4,Lying,4
2019-01-14,23:21:08,4.4100003,1.54,7.7099996,0.02,0.01,0.0,0.02,0.01,0.0,4,Lying,4
2019-01-14,23:21:08,4.58,1.48,7.8299994,0.02,0.01,0.0,0.02,0.01,0.0,4,Lying,4
2019-01-14,23:21:08,4.58,1.48,7.8299994,0.0,-0.049999997000000004,0.02,0.0,-0.049999997000000004,0.02,4,Lying,4
2019-01-14,23:21:09,4.67,1.37,7.9699993000000005,0.0,-0.049999997000000004,0.02,0.0,-0.049999997000000004,0.02,4,Lying,4
2019-01-14,23:21:09,4.67,1.37,7.9699993000000005,-0.01,-0.02,0.02,-0.01,-0.02,0.02,4,Lying,4
2019-01-14,23:21:09,4.44,1.34,7.93,-0.01,-0.02,0.02,-0.01,-0.02,0.02,4,Lying,4
2019-01-14,23:21:09,4.44,1.34,7.93,0.0,-0.01,0.01,0.0,-0.01,0.01,4,Lying,4
2019-01-14,23:21:09,4.3900003,1.43,7.72,0.0,-0.01,0.01,0.0,-0.01,0.01,4,Lying,4
2019-01-14,23:21:09,4.3900003,1.43,7.72,0.0,0.01,0.02,0.0,0.01,0.02,4,Lying,4
2019-01-14,23:21:09,4.73,1.5,7.9699993000000005,0.0,0.01,0.02,0.0,0.01,0.02,4,Lying,4
2019-01-14,23:21:09,4.73,1.5,7.9699993000000005,0.0,-0.01,0.02,0.0,-0.01,0.02,4,Lying,4
2019-01-14,23:21:09,4.31,1.4,7.7899994999999995,0.0,-0.01,0.02,0.0,-0.01,0.02,4,Lying,4
2019-01-14,23:21:09,4.31,1.4,7.7899994999999995,0.0,0.04,0.0,0.0,0.04,0.0,4,Lying,4
2019-01-14,23:21:09,4.37,1.42,7.7799997,0.0,0.04,0.0,0.0,0.04,0.0,4,Lying,4
2019-01-14,23:21:09,4.37,1.42,7.7799997,0.01,0.02,0.0,0.01,0.02,0.0,4,Lying,4
2019-01-14,23:21:09,4.54,1.34,7.7699995,0.01,0.02,0.0,0.01,0.02,0.0,4,Lying,4
2019-01-14,23:21:09,4.54,1.34,7.7699995,0.01,0.0,0.0,0.01,0.0,0.0,4,Lying,4
2019-01-14,23:21:09,4.48,1.39,7.8199997,0.01,0.0,0.0,0.01,0.0,0.0,4,Lying,4
2019-01-14,23:21:09,4.48,1.39,7.8199997,0.01,0.0,0.0,0.01,0.0,0.0,4,Lying,4
2019-01-14,23:21:09,4.51,1.4399998999999999,7.7899994999999995,0.01,0.0,0.0,0.01,0.0,0.0,4,Lying,4
2019-01-14,23:21:09,4.51,1.4399998999999999,7.7899994999999995,0.01,0.0,0.0,0.01,0.0,0.0,4,Lying,4
2019-01-14,23:21:09,4.55,1.52,7.7699995,0.01,0.0,0.0,0.01,0.0,0.0,4,Lying,4
2019-01-14,23:21:09,4.55,1.52,7.7699995,0.0,-0.01,0.0,0.0,-0.01,0.0,4,Lying,4
2019-01-14,23:21:09,4.53,1.51,7.96,0.0,-0.01,0.0,0.0,-0.01,0.0,4,Lying,4
2019-01-14,23:21:09,4.53,1.51,7.96,0.0,0.0,-0.01,0.0,0.0,-0.01,4,Lying,4
2019-01-14,23:21:09,4.4300003,1.4399998999999999,7.8699994,0.0,0.0,-0.01,0.0,0.0,-0.01,4,Lying,4
2019-01-14,23:21:09,4.4300003,1.4399998999999999,7.8699994,0.01,0.02,-0.01,0.01,0.02,-0.01,4,Lying,4
2019-01-14,23:21:09,4.5,1.5,7.7799997,0.01,0.02,-0.01,0.01,0.02,-0.01,4,Lying,4
2019-01-14,23:21:09,4.5,1.5,7.7799997,0.01,0.0,0.0,0.01,0.0,0.0,4,Lying,4
2019-01-14,23:21:09,4.4300003,1.42,7.7999997,0.01,0.0,0.0,0.01,0.0,0.0,4,Lying,4
2019-01-14,23:21:09,4.4300003,1.42,7.7999997,0.0,0.0,0.0,0.0,0.0,0.0,4,Lying,4
2019-01-14,23:21:09,4.5,1.4499999,7.7699995,0.0,0.0,0.0,0.0,0.0,0.0,4,Lying,4
2019-01-14,23:21:09,4.5,1.4499999,7.7699995,0.0,-0.01,0.02,0.0,-0.01,0.02,4,Lying,4
2019-01-14,23:21:09,4.48,1.4599999,7.7799997,0.0,-0.01,0.02,0.0,-0.01,0.02,4,Lying,4
2019-01-14,23:21:09,4.48,1.4599999,7.7799997,0.0,-0.01,0.0,0.0,-0.01,0.0,4,Lying,4
2019-01-14,23:21:09,4.4900002,1.42,7.7799997,0.0,-0.01,0.0,0.0,-0.01,0.0,4,Lying,4
2019-01-14,23:21:09,4.4900002,1.42,7.7799997,0.0,-0.01,0.0,0.0,-0.01,0.0,4,Lying,4
2019-01-14,23:21:09,4.55,1.4399998999999999,7.8399997,0.0,-0.01,0.0,0.0,-0.01,0.0,4,Lying,4
2019-01-14,23:21:09,4.55,1.4399998999999999,7.8399997,0.0,-0.01,0.0,0.0,-0.01,0.0,4,Lying,4
2019-01-14,23:21:09,4.52,1.4399998999999999,7.8199997,0.0,-0.01,0.0,0.0,-0.01,0.0,4,Lying,4
2019-01-14,23:21:09,4.52,1.4399998999999999,7.8199997,0.0,0.0,0.0,0.0,0.0,0.0,4,Lying,4
2019-01-14,23:21:09,4.38,1.4,7.759999799999999,0.0,0.0,0.0,0.0,0.0,0.0,4,Lying,4
2019-01-14,23:21:09,4.38,1.4,7.759999799999999,0.0,0.0,0.0,0.0,0.0,0.0,4,Lying,4
2019-01-14,23:21:09,4.4700003,1.5,7.7799997,0.0,0.0,0.0,0.0,0.0,0.0,4,Lying,4
2019-01-14,23:21:09,4.4700003,1.5,7.7799997,0.0,-0.01,0.0,0.0,-0.01,0.0,4,Lying,4
2019-01-14,23:21:09,4.54,1.43,7.7499994999999995,0.0,-0.01,0.0,0.0,-0.01,0.0,4,Lying,4
2019-01-14,23:21:09,4.54,1.43,7.7499994999999995,0.0,-0.04,0.01,0.0,-0.04,0.01,4,Lying,4
2019-01-14,23:21:09,4.4300003,1.42,7.68,0.0,-0.04,0.01,0.0,-0.04,0.01,4,Lying,4
2019-01-14,23:21:10,4.4300003,1.42,7.68,-0.01,0.0,0.01,-0.01,0.0,0.01,4,Lying,4
2019-01-14,23:21:10,4.71,1.48,7.8299994,-0.01,-0.02,0.01,-0.01,-0.02,0.01,4,Lying,4
2019-01-14,23:21:10,4.71,1.48,7.8299994,-0.01,-0.02,0.01,-0.01,-0.02,0.01,4,Lying,4
2019-01-14,23:21:10,4.4500003,1.4599999,7.9699993000000005,-0.01,-0.02,0.01,-0.01,-0.02,0.01,4,Lying,4
2019-01-14,23:21:10,4.4500003,1.4599999,7.9699993000000005,0.01,0.02,-0.01,0.01,0.02,-0.01,4,Lying,4
2019-01-14,23:21:10,4.28,1.4499999,7.6499996,0.01,0.02,-0.01,0.01,0.02,-0.01,4,Lying,4
2019-01-14,23:21:10,4.28,1.4499999,7.6499996,0.01,0.0,-0.01,0.01,0.0,-0.01,4,Lying,4
2019-01-14,23:21:10,4.71,1.42,7.7799997,0.01,0.0,-0.01,0.01,0.0,-0.01,4,Lying,4
2019-01-14,23:21:10,4.71,1.42,7.7799997,0.0,-0.07,0.02,0.0,-0.07,0.02,4,Lying,4
2019-01-14,23:21:10,4.34,1.37,7.7099996,0.0,-0.07,0.02,0.0,-0.07,0.02,4,Lying,4
2019-01-14,23:21:10,4.34,1.37,7.7099996,0.0,0.02,0.0,0.0,0.02,0.0,4,Lying,4
2019-01-14,23:21:10,4.55,1.43,7.7999997,0.0,0.02,0.0,0.0,0.02,0.0,4,Lying,4
2019-01-14,23:21:10,4.55,1.43,7.7999997,0.01,-0.01,0.01,0.01,-0.01,0.01,4,Lying,4
2019-01-14,23:21:10,4.63,1.4599999,7.91,0.01,-0.01,0.01,0.01,-0.01,0.01,4,Lying,4
2019-01-14,23:21:10,4.63,1.4599999,7.91,0.0,0.01,0.01,0.0,0.01,0.01,4,Lying,4
2019-01-14,23:21:10,4.58,1.52,7.9799995,0.0,0.01,0.01,0.0,0.01,0.01,4,Lying,4
2019-01-14,23:21:10,4.58,1.52,7.9799995,0.01,0.02,0.0,0.01,0.02,0.0,4,Lying,4
2019-01-14,23:21:10,4.61,1.47,8.03,0.01,0.02,0.0,0.01,0.02,0.0,4,Lying,4
2019-01-14,23:21:10,4.61,1.47,8.03,0.0,0.0,-0.01,0.0,0.0,-0.01,4,Lying,4
2019-01-14,23:21:10,4.4,1.47,7.5899997,0.0,0.0,-0.01,0.0,0.0,-0.01,4,Lying,4
2019-01-14,23:21:10,4.4,1.47,7.5899997,0.03,0.0,-0.02,0.03,0.0,-0.02,4,Lying,4
2019-01-14,23:21:10,4.34,1.49,7.4599996,0.03,0.0,-0.02,0.03,0.0,-0.02,4,Lying,4
2019-01-14,23:21:10,4.34,1.49,7.4599996,0.04,-0.02,-0.02,0.04,-0.02,-0.02,4,Lying,4
2019-01-14,23:21:10,4.57,1.42,7.72,0.04,-0.02,-0.02,0.04,-0.02,-0.02,4,Lying,4
2019-01-14,23:21:10,4.57,1.42,7.72,0.0,-0.03,0.01,0.0,-0.03,0.01,4,Lying,4
2019-01-14,23:21:10,4.28,1.4,7.5499997,0.0,-0.03,0.01,0.0,-0.03,0.01,4,Lying,4
2019-01-14,23:21:10,4.28,1.4,7.5499997,0.0,0.01,0.0,0.0,0.01,0.0,4,Lying,4
2019-01-14,23:21:10,4.4,1.4599999,7.7999997,0.0,0.01,0.0,0.0,0.01,0.0,4,Lying,4
2019-01-14,23:21:10,4.4,1.4599999,7.7999997,-0.02,0.0,0.02,-0.02,0.0,0.02,4,Lying,4
2019-01-14,23:21:10,4.89,1.48,8.28,-0.02,0.0,0.02,-0.02,0.0,0.02,4,Lying,4
2019-01-14,23:21:10,4.89,1.48,8.28,-0.02,-0.01,0.03,-0.02,-0.01,0.03,4,Lying,4
2019-01-14,23:21:10,4.32,1.55,7.89,-0.02,-0.01,0.03,-0.02,-0.01,0.03,4,Lying,4
2019-01-14,23:21:10,4.32,1.55,7.89,0.0,0.06,0.0,0.0,0.06,0.0,4,Lying,4
2019-01-14,23:21:10,4.7000003,1.43,7.8299994,0.0,0.06,0.0,0.0,0.06,0.0,4,Lying,4
2019-01-14,23:21:10,4.7000003,1.43,7.8299994,-0.01,-0.049999997000000004,0.03,-0.01,-0.049999997000000004,0.03,4,Lying,4
2019-01-14,23:21:10,4.56,1.4599999,7.5699997,-0.01,-0.049999997000000004,0.03,-0.01,-0.049999997000000004,0.03,4,Lying,4
2019-01-14,23:21:10,4.56,1.4599999,7.5699997,0.0,-0.049999997000000004,0.02,0.0,-0.049999997000000004,0.02,4,Lying,4
2019-01-14,23:21:10,4.55,1.29,8.0,0.0,-0.049999997000000004,0.02,0.0,-0.049999997000000004,0.02,4,Lying,4
2019-01-14,23:21:10,4.55,1.29,8.0,-0.03,0.04,0.01,-0.03,0.04,0.01,4,Lying,4
2019-01-14,23:21:10,4.4500003,1.54,7.7099996,-0.03,0.04,0.01,-0.03,0.04,0.01,4,Lying,4
2019-01-14,23:21:10,4.4500003,1.54,7.7099996,0.04,0.0,-0.03,0.04,0.0,-0.03,4,Lying,4
2019-01-14,23:21:10,4.48,1.47,8.0,0.01,-0.01,-0.01,0.01,-0.01,-0.01,4,Lying,4
2019-01-14,23:21:10,4.48,1.47,8.0,0.01,-0.01,-0.01,0.01,-0.01,-0.01,4,Lying,4
2019-01-14,23:21:10,4.3,1.41,7.72,0.01,-0.01,-0.01,0.01,-0.01,-0.01,4,Lying,4
2019-01-14,23:21:10,4.3,1.41,7.72,0.01,0.01,0.01,0.01,0.01,0.01,4,Lying,4
2019-01-14,23:21:10,4.6,1.4,7.7299995,0.01,0.01,0.01,0.01,0.01,0.01,4,Lying,4
2019-01-14,23:21:11,4.6,1.4,7.7299995,-0.01,-0.049999997000000004,0.02,-0.01,-0.049999997000000004,0.02,4,Lying,4
2019-01-14,23:21:11,4.71,1.54,7.7099996,-0.01,-0.049999997000000004,0.02,-0.01,-0.049999997000000004,0.02,4,Lying,4
2019-01-14,23:21:11,4.71,1.54,7.7099996,-0.01,-0.03,0.0,-0.01,-0.03,0.0,4,Lying,4
2019-01-14,23:21:11,4.36,1.4399998999999999,7.7999997,-0.01,-0.03,0.0,-0.01,-0.03,0.0,4,Lying,4
2019-01-14,23:21:11,4.36,1.4399998999999999,7.7999997,0.0,0.03,0.0,0.0,0.03,0.0,4,Lying,4
2019-01-14,23:21:11,4.7200003,1.3299999,8.0,0.0,0.03,0.0,0.0,0.03,0.0,4,Lying,4
2019-01-14,23:21:11,4.7200003,1.3299999,8.0,0.0,-0.02,0.01,0.0,-0.02,0.01,4,Lying,4
2019-01-14,23:21:11,4.4500003,1.4599999,7.68,0.0,-0.02,0.01,0.0,-0.02,0.01,4,Lying,4
2019-01-14,23:21:11,4.4500003,1.4599999,7.68,0.03,-0.01,-0.01,0.03,-0.01,-0.01,4,Lying,4
2019-01-14,23:21:11,4.6,1.39,7.8999996,0.03,-0.01,-0.01,0.03,-0.01,-0.01,4,Lying,4
2019-01-14,23:21:11,4.6,1.39,7.8999996,0.0,0.0,0.01,0.0,0.0,0.01,4,Lying,4
2019-01-14,23:21:11,4.71,1.48,7.9399996,0.0,0.0,0.01,0.0,0.0,0.01,4,Lying,4
2019-01-14,23:21:11,4.71,1.48,7.9399996,0.01,-0.01,0.0,0.01,-0.01,0.0,4,Lying,4
2019-01-14,23:21:11,4.36,1.5899999,7.5499997,0.01,-0.01,0.0,0.01,-0.01,0.0,4,Lying,4
2019-01-14,23:21:11,4.36,1.5899999,7.5499997,0.04,0.0,-0.03,0.04,0.0,-0.03,4,Lying,4
2019-01-14,23:21:11,4.3900003,1.5,7.6099997,0.04,0.0,-0.03,0.04,0.0,-0.03,4,Lying,4
2019-01-14,23:21:11,4.3900003,1.5,7.6099997,-0.03,-0.03,0.0,-0.03,-0.03,0.0,4,Lying,4
2019-01-14,23:21:11,4.31,1.4499999,7.47,-0.049999997000000004,-0.02,0.03,-0.049999997000000004,-0.02,0.03,4,Lying,4
2019-01-14,23:21:11,4.31,1.4499999,7.47,-0.049999997000000004,-0.02,0.03,-0.049999997000000004,-0.02,0.03,4,Lying,4
2019-01-14,23:21:11,4.86,1.4,8.339999,-0.049999997000000004,-0.02,0.03,-0.049999997000000004,-0.02,0.03,4,Lying,4
2019-01-14,23:21:11,4.86,1.4,8.339999,-0.08,0.02,0.03,-0.08,0.02,0.03,4,Lying,4
2019-01-14,23:21:11,4.3900003,1.37,7.7899994999999995,-0.08,0.02,0.03,-0.08,0.02,0.03,4,Lying,4
2019-01-14,23:21:11,4.3900003,1.37,7.7899994999999995,0.03,0.0,-0.03,0.03,0.0,-0.03,4,Lying,4
2019-01-14,23:21:11,4.4500003,1.55,7.49,0.03,0.0,-0.03,0.03,0.0,-0.03,4,Lying,4
2019-01-14,23:21:11,4.4500003,1.55,7.49,0.04,-0.04,0.0,0.04,-0.04,0.0,4,Lying,4
2019-01-14,23:21:11,5.23,1.38,8.379999,0.04,-0.04,0.0,0.04,-0.04,0.0,4,Lying,4
2019-01-14,23:21:11,5.23,1.38,8.379999,-0.03,-0.02,0.03,-0.03,-0.02,0.03,4,Lying,4
2019-01-14,23:21:11,4.03,1.52,7.45,-0.03,-0.02,0.03,-0.03,-0.02,0.03,4,Lying,4
2019-01-14,23:21:11,4.03,1.52,7.45,0.06,0.07,-0.06,0.06,0.07,-0.06,4,Lying,4
2019-01-14,23:21:11,4.86,1.42,7.809999499999999,0.06,0.07,-0.06,0.06,0.07,-0.06,4,Lying,4
2019-01-14,23:21:11,4.86,1.42,7.809999499999999,-0.02,-0.089999996,0.03,-0.02,-0.089999996,0.03,4,Lying,4
2019-01-14,23:21:11,4.6800003,1.4499999,7.6899996,-0.02,-0.089999996,0.03,-0.02,-0.089999996,0.03,4,Lying,4
2019-01-14,23:21:11,4.6800003,1.4499999,7.6899996,0.03,0.0,-0.01,0.03,0.0,-0.01,4,Lying,4
2019-01-14,23:21:11,4.44,1.39,7.89,0.03,0.0,-0.01,0.03,0.0,-0.01,4,Lying,4
2019-01-14,23:21:11,4.44,1.39,7.89,0.04,0.06,-0.03,0.04,0.06,-0.03,4,Lying,4
2019-01-14,23:21:11,4.4300003,1.6199999,7.8799996,0.04,0.06,-0.03,0.04,0.06,-0.03,4,Lying,4
2019-01-14,23:21:11,4.4300003,1.6199999,7.8799996,0.07,0.07,-0.03,0.07,0.07,-0.03,4,Lying,4
2019-01-14,23:21:11,4.34,1.6199999,7.509999799999999,0.07,0.07,-0.03,0.07,0.07,-0.03,4,Lying,4
2019-01-14,23:21:11,4.34,1.6199999,7.509999799999999,0.04,0.03,-0.01,0.04,0.03,-0.01,4,Lying,4
2019-01-14,23:21:11,4.7000003,1.8299999,7.66,0.04,0.03,-0.01,0.04,0.03,-0.01,4,Lying,4
2019-01-14,23:21:11,4.7000003,1.8299999,7.66,-0.01,-0.03,0.01,-0.01,-0.03,0.01,4,Lying,4
2019-01-14,23:21:11,4.26,1.5699999,7.7099996,-0.01,-0.03,0.01,-0.01,-0.03,0.01,4,Lying,4
2019-01-14,23:21:11,4.26,1.5699999,7.7099996,-0.02,0.02,0.0,-0.02,0.02,0.0,4,Lying,4
2019-01-14,23:21:12,4.9100003,1.3199999,8.19,-0.02,0.02,0.0,-0.02,0.02,0.0,4,Lying,4
2019-01-14,23:21:12,4.9100003,1.3199999,8.19,-0.02,-0.03,0.07,-0.02,-0.03,0.07,4,Lying,4
2019-01-14,23:21:12,4.6,1.47,8.03,-0.02,-0.03,0.07,-0.02,-0.03,0.07,4,Lying,4
2019-01-14,23:21:12,4.6,1.47,8.03,0.04,0.0,-0.03,0.04,0.0,-0.03,4,Lying,4
2019-01-14,23:21:12,4.35,1.6099999,7.7999997,0.04,0.0,-0.03,0.04,0.0,-0.03,4,Lying,4
2019-01-14,23:21:12,4.35,1.6099999,7.7999997,0.07,0.049999997000000004,-0.03,0.07,0.049999997000000004,-0.03,4,Lying,4
2019-01-14,23:21:12,4.2400002,1.5699999,7.6899996,0.07,0.049999997000000004,-0.03,0.07,0.049999997000000004,-0.03,4,Lying,4
2019-01-14,23:21:12,4.2400002,1.5699999,7.6899996,0.01,-0.02,0.02,0.01,-0.02,0.02,4,Lying,4
2019-01-14,23:21:12,4.71,1.42,7.6299996,0.01,-0.02,0.02,0.01,-0.02,0.02,4,Lying,4
2019-01-14,23:21:12,4.71,1.42,7.6299996,-0.02,-0.089999996,0.06,-0.02,-0.089999996,0.06,4,Lying,4
2019-01-14,23:21:12,4.35,1.16,8.2,-0.02,-0.089999996,0.06,-0.02,-0.089999996,0.06,4,Lying,4
2019-01-14,23:21:12,4.35,1.16,8.2,0.03,0.0,-0.04,0.03,0.0,-0.04,4,Lying,4
2019-01-14,23:21:12,4.87,1.9099998,7.8599997,0.03,0.0,-0.04,0.03,0.0,-0.04,4,Lying,4
2019-01-14,23:21:12,4.87,1.9099998,7.8599997,0.04,-0.01,0.04,0.04,-0.01,0.04,4,Lying,4
2019-01-14,23:21:12,3.6399998999999994,2.23,6.95,0.04,-0.01,0.04,0.04,-0.01,0.04,4,Lying,4
2019-01-14,23:21:12,3.6399998999999994,2.23,6.95,0.13,0.08,-0.13,0.13,0.08,-0.13,4,Lying,4
2019-01-14,23:21:12,3.9199998,1.51,7.8299994,0.13,0.08,-0.13,0.13,0.08,-0.13,4,Lying,4
2019-01-14,23:21:12,3.9199998,1.51,7.8299994,-0.089999996,0.0,0.03,-0.089999996,0.0,0.03,4,Lying,4
2019-01-14,23:21:12,5.15,1.12,8.41,-0.089999996,0.0,0.03,-0.089999996,0.0,0.03,4,Lying,4
2019-01-14,23:21:12,5.15,1.12,8.41,-0.12,-0.16,0.14999999,-0.12,-0.16,0.14999999,4,Lying,4
2019-01-14,23:21:12,4.94,1.49,7.68,-0.12,-0.16,0.14999999,-0.12,-0.16,0.14999999,4,Lying,4
2019-01-14,23:21:12,4.94,1.49,7.68,0.02,-0.09999999400000001,0.0,0.02,-0.09999999400000001,0.0,4,Lying,4
2019-01-14,23:21:12,4.26,1.81,7.6899996,0.02,-0.09999999400000001,0.0,0.02,-0.09999999400000001,0.0,4,Lying,4
2019-01-14,23:21:12,4.26,1.81,7.6899996,0.03,0.08,-0.049999997000000004,0.03,0.08,-0.049999997000000004,4,Lying,4
2019-01-14,23:21:12,4.36,1.48,7.7,0.03,0.08,-0.049999997000000004,0.03,0.08,-0.049999997000000004,4,Lying,4
2019-01-14,23:21:12,4.36,1.48,7.7,-0.03,-0.06,0.02,-0.03,-0.06,0.02,4,Lying,4
2019-01-14,23:21:12,4.8,1.53,7.8199997,-0.03,-0.06,0.02,-0.03,-0.06,0.02,4,Lying,4
2019-01-14,23:21:12,4.8,1.53,7.8199997,0.01,-0.03,0.0,0.01,-0.03,0.0,4,Lying,4
2019-01-14,23:21:12,4.27,1.51,7.9199996,0.01,-0.03,0.0,0.01,-0.03,0.0,4,Lying,4
2019-01-14,23:21:12,4.27,1.51,7.9199996,0.02,0.04,-0.04,0.02,0.04,-0.04,4,Lying,4
2019-01-14,23:21:12,4.4100003,1.72,7.7699995,0.02,0.04,-0.04,0.02,0.04,-0.04,4,Lying,4
2019-01-14,23:21:12,4.4100003,1.72,7.7699995,0.049999997000000004,-0.02,0.0,0.049999997000000004,-0.02,0.0,4,Lying,4
2019-01-14,23:21:12,4.58,1.69,7.5799994,0.049999997000000004,-0.02,0.0,0.049999997000000004,-0.02,0.0,4,Lying,4
2019-01-14,23:21:12,4.58,1.69,7.5799994,0.01,-0.06,0.0,0.01,-0.06,0.0,4,Lying,4
2019-01-14,23:21:12,4.73,1.71,7.509999799999999,0.01,-0.06,0.0,0.01,-0.06,0.0,4,Lying,4
2019-01-14,23:21:12,4.73,1.71,7.509999799999999,0.0,-0.04,0.0,0.0,-0.04,0.0,4,Lying,4
2019-01-14,23:21:12,4.3900003,1.5699999,7.8399997,0.0,-0.04,0.0,0.0,-0.04,0.0,4,Lying,4
2019-01-14,23:21:12,4.3900003,1.5699999,7.8399997,-0.04,0.02,0.0,-0.04,0.02,0.0,4,Lying,4
2019-01-14,23:21:12,4.52,1.73,7.759999799999999,-0.04,0.02,0.0,-0.04,0.02,0.0,4,Lying,4
2019-01-14,23:21:12,4.52,1.73,7.759999799999999,0.04,0.0,0.0,0.04,0.0,0.0,4,Lying,4
2019-01-14,23:21:12,4.4500003,1.6800001,7.5199995,0.04,0.0,0.0,0.04,0.0,0.0,4,Lying,4
2019-01-14,23:21:12,4.4500003,1.6800001,7.5199995,0.03,0.0,0.0,0.03,0.0,0.0,4,Lying,4
2019-01-14,23:21:12,4.42,1.52,7.7299995,0.03,0.0,0.0,0.03,0.0,0.0,4,Lying,4
2019-01-14,23:21:12,4.42,1.52,7.7299995,0.0,-0.01,0.0,0.0,-0.01,0.0,4,Lying,4
2019-01-14,23:21:13,4.53,1.37,7.74,0.0,-0.01,0.0,0.0,-0.01,0.0,4,Lying,4
2019-01-14,23:21:13,4.53,1.37,7.74,-0.01,0.0,0.02,-0.01,0.0,0.02,4,Lying,4
2019-01-14,23:21:13,4.65,1.6099999,7.7799997,-0.01,0.0,0.02,-0.01,0.0,0.02,4,Lying,4
2019-01-14,23:21:13,4.65,1.6099999,7.7799997,0.0,-0.03,0.01,0.0,-0.03,0.01,4,Lying,4
2019-01-14,23:21:13,4.6,1.5899999,7.9399996,0.0,-0.03,0.01,0.0,-0.03,0.01,4,Lying,4
2019-01-14,23:21:13,4.6,1.5899999,7.9399996,0.0,0.02,0.01,0.0,0.02,0.01,4,Lying,4
2019-01-14,23:21:13,4.1800003,1.6099999,7.5499997,0.0,0.02,0.01,0.0,0.02,0.01,4,Lying,4
2019-01-14,23:21:13,4.1800003,1.6099999,7.5499997,0.049999997000000004,0.049999997000000004,0.0,0.049999997000000004,0.049999997000000004,0.0,4,Lying,4
2019-01-14,23:21:13,4.63,1.49,7.99,0.049999997000000004,0.049999997000000004,0.0,0.049999997000000004,0.049999997000000004,0.0,4,Lying,4
2019-01-14,23:21:13,4.63,1.49,7.99,-0.03,0.089999996,0.06,-0.03,0.089999996,0.06,4,Lying,4
2019-01-14,23:21:13,4.52,1.8,7.8599997,-0.03,0.089999996,0.06,-0.03,0.089999996,0.06,4,Lying,4
2019-01-14,23:21:13,4.52,1.8,7.8599997,0.0,0.14999999,0.04,0.0,0.14999999,0.04,4,Lying,4
2019-01-14,23:21:13,4.07,1.53,7.7999997,0.0,0.14999999,0.04,0.0,0.14999999,0.04,4,Lying,4
2019-01-14,23:21:13,4.07,1.53,7.7999997,0.04,0.11,-0.03,0.04,0.11,-0.03,4,Lying,4
2019-01-14,23:21:13,4.4,1.6099999,7.6499996,0.04,0.11,-0.03,0.04,0.11,-0.03,4,Lying,4
2019-01-14,23:21:13,4.4,1.6099999,7.6499996,0.07,0.09999999400000001,0.0,0.07,0.09999999400000001,0.0,4,Lying,4
2019-01-14,23:21:13,4.26,1.6199999,8.04,0.07,0.09999999400000001,0.0,0.07,0.09999999400000001,0.0,4,Lying,4
2019-01-14,23:21:13,4.26,1.6199999,8.04,0.01,0.31,0.04,0.01,0.31,0.04,4,Lying,4
2019-01-14,23:21:13,3.84,1.71,7.95,0.01,0.31,0.04,0.01,0.31,0.04,4,Lying,4
2019-01-14,23:21:13,3.84,1.71,7.95,0.03,0.11,-0.04,0.03,0.11,-0.04,4,Lying,4
2019-01-14,23:21:13,3.8799998999999996,1.69,7.8699994,0.03,0.11,-0.04,0.03,0.11,-0.04,4,Lying,4
2019-01-14,23:21:13,3.8799998999999996,1.69,7.8699994,-0.02,0.04,0.0,-0.02,0.04,0.0,4,Lying,4
2019-01-14,23:21:13,4.34,1.5699999,7.8599997,-0.02,0.04,0.0,-0.02,0.04,0.0,4,Lying,4
2019-01-14,23:21:13,4.34,1.5699999,7.8599997,-0.07,-0.11,0.049999997000000004,-0.07,-0.11,0.049999997000000004,4,Lying,4
2019-01-14,23:21:13,4.35,1.5799999,7.809999499999999,-0.07,-0.11,0.049999997000000004,-0.07,-0.11,0.049999997000000004,4,Lying,4
2019-01-14,23:21:13,4.35,1.5799999,7.809999499999999,-0.01,-0.089999996,0.02,-0.01,-0.089999996,0.02,4,Lying,4
2019-01-14,23:21:13,4.09,1.4499999,7.96,-0.01,-0.089999996,0.02,-0.01,-0.089999996,0.02,4,Lying,4
2019-01-14,23:21:13,4.09,1.4499999,7.96,0.0,0.09999999400000001,0.0,0.0,0.09999999400000001,0.0,4,Lying,4
2019-01-14,23:21:13,4.07,1.51,8.07,0.0,0.09999999400000001,0.0,0.0,0.09999999400000001,0.0,4,Lying,4
2019-01-14,23:21:13,4.07,1.51,8.07,0.089999996,0.16,-0.04,0.089999996,0.16,-0.04,4,Lying,4
2019-01-14,23:21:13,4.17,1.5699999,8.23,0.089999996,0.16,-0.04,0.089999996,0.16,-0.04,4,Lying,4
2019-01-14,23:21:13,4.17,1.5699999,8.23,0.12,0.16,0.0,0.12,0.16,0.0,4,Lying,4
2019-01-14,23:21:13,4.07,1.56,8.29,0.12,0.16,0.0,0.12,0.16,0.0,4,Lying,4
2019-01-14,23:21:13,4.07,1.56,8.29,0.14,0.17999999,0.0,0.14,0.17999999,0.0,4,Lying,4
2019-01-14,23:21:13,3.82,1.9200001,8.0,0.14,0.17999999,0.0,0.14,0.17999999,0.0,4,Lying,4
2019-01-14,23:21:13,3.82,1.9200001,8.0,0.09999999400000001,0.17,0.01,0.09999999400000001,0.17,0.01,4,Lying,4
2019-01-14,23:21:13,3.76,1.8599999,7.8199997,0.09999999400000001,0.17,0.01,0.09999999400000001,0.17,0.01,4,Lying,4
2019-01-14,23:21:13,3.76,1.8599999,7.8199997,0.12,0.13,0.0,0.12,0.13,0.0,4,Lying,4
2019-01-14,23:21:13,3.5,1.73,8.03,0.12,0.13,0.0,0.12,0.13,0.0,4,Lying,4
2019-01-14,23:21:13,3.5,1.73,8.03,0.13,0.16,-0.01,0.13,0.16,-0.01,4,Lying,4
2019-01-14,23:21:13,3.55,1.75,8.21,0.13,0.16,-0.01,0.13,0.16,-0.01,4,Lying,4
2019-01-14,23:21:13,3.55,1.75,8.21,0.11,0.09999999400000001,-0.01,0.11,0.09999999400000001,-0.01,4,Lying,4
2019-01-14,23:21:14,3.32,1.8199999,7.7699995,0.11,0.09999999400000001,-0.01,0.11,0.09999999400000001,-0.01,4,Lying,4
2019-01-14,23:21:14,3.32,1.8199999,7.7699995,0.13,0.11,0.0,0.13,0.11,0.0,4,Lying,4
2019-01-14,23:21:14,3.9299998,1.73,8.099999,0.13,0.11,0.0,0.13,0.11,0.0,4,Lying,4
2019-01-14,23:21:14,3.9299998,1.73,8.099999,-0.03,-0.13,0.02,-0.03,-0.13,0.02,4,Lying,4
2019-01-14,23:21:14,4.03,2.01,8.08,-0.03,-0.13,0.02,-0.03,-0.13,0.02,4,Lying,4
2019-01-14,23:21:14,4.03,2.01,8.08,0.03,-0.049999997000000004,-0.02,0.03,-0.049999997000000004,-0.02,4,Lying,4
2019-01-14,23:21:14,3.6399998999999994,2.4199998,7.91,0.03,-0.049999997000000004,-0.02,0.03,-0.049999997000000004,-0.02,4,Lying,4
2019-01-14,23:21:14,3.6399998999999994,2.4199998,7.91,0.11,0.09999999400000001,-0.03,0.11,0.09999999400000001,-0.03,4,Lying,4
2019-01-14,23:21:14,3.1499999,2.61,7.9699993000000005,0.11,0.09999999400000001,-0.03,0.11,0.09999999400000001,-0.03,4,Lying,4
2019-01-14,23:21:14,3.1499999,2.61,7.9699993000000005,0.08,0.16,-0.049999997000000004,0.08,0.16,-0.049999997000000004,4,Lying,4
2019-01-14,23:21:14,2.99,2.27,7.95,0.02,0.12,-0.01,0.02,0.12,-0.01,4,Lying,4
2019-01-14,23:21:14,2.99,2.27,7.95,0.02,0.12,-0.01,0.02,0.12,-0.01,4,Lying,4
2019-01-14,23:21:14,3.58,2.02,8.089999,0.02,0.12,-0.01,0.02,0.12,-0.01,4,Lying,4
2019-01-14,23:21:14,3.58,2.02,8.089999,0.02,-0.049999997000000004,0.02,0.02,-0.049999997000000004,0.02,4,Lying,4
2019-01-14,23:21:14,3.7399998,2.07,8.04,0.02,-0.049999997000000004,0.02,0.02,-0.049999997000000004,0.02,4,Lying,4
2019-01-14,23:21:14,3.7399998,2.07,8.04,0.01,-0.01,0.01,0.01,-0.01,0.01,4,Lying,4
2019-01-14,23:21:14,3.6499998999999996,2.03,8.12,0.01,-0.01,0.01,0.01,-0.01,0.01,4,Lying,4
2019-01-14,23:21:14,3.6499998999999996,2.03,8.12,-0.01,0.08,-0.01,-0.01,0.08,-0.01,4,Lying,4
2019-01-14,23:21:14,3.37,2.09,8.19,-0.01,0.08,-0.01,-0.01,0.08,-0.01,4,Lying,4
2019-01-14,23:21:14,3.37,2.09,8.19,0.0,0.14,-0.03,0.0,0.14,-0.03,4,Lying,4
2019-01-14,23:21:14,3.1699998,2.1599998,8.24,0.0,0.14,-0.03,0.0,0.14,-0.03,4,Lying,4
2019-01-14,23:21:14,3.1699998,2.1599998,8.24,0.0,0.16,-0.01,0.0,0.16,-0.01,4,Lying,4
2019-01-14,23:21:14,3.06,2.1499999,8.089999,0.0,0.16,-0.01,0.0,0.16,-0.01,4,Lying,4
2019-01-14,23:21:14,3.06,2.1499999,8.089999,0.02,0.11,-0.02,0.02,0.11,-0.02,4,Lying,4
2019-01-14,23:21:14,3.1599998,2.17,8.16,0.02,0.11,-0.02,0.02,0.11,-0.02,4,Lying,4
2019-01-14,23:21:14,3.1599998,2.17,8.16,0.0,0.049999997000000004,0.0,0.0,0.049999997000000004,0.0,4,Lying,4
2019-01-14,23:21:14,3.2299998,2.17,8.129999,0.0,0.049999997000000004,0.0,0.0,0.049999997000000004,0.0,4,Lying,4
2019-01-14,23:21:14,3.2299998,2.17,8.129999,0.0,0.04,0.01,0.0,0.04,0.01,4,Lying,4
2019-01-14,23:21:14,3.1999998,2.2,8.139999000000001,0.0,0.04,0.01,0.0,0.04,0.01,4,Lying,4
2019-01-14,23:21:14,3.1999998,2.2,8.139999000000001,0.0,0.01,0.0,0.0,0.01,0.0,4,Lying,4
2019-01-14,23:21:14,3.12,2.1299999,8.139999000000001,0.0,0.01,0.0,0.0,0.01,0.0,4,Lying,4
2019-01-14,23:21:14,3.12,2.1299999,8.139999000000001,0.0,0.01,0.0,0.0,0.01,0.0,4,Lying,4
2019-01-14,23:21:14,3.1399999,2.1399999,8.29,0.0,0.01,0.0,0.0,0.01,0.0,4,Lying,4
2019-01-14,23:21:14,3.1399999,2.1399999,8.29,-0.01,0.0,0.01,-0.01,0.0,0.01,4,Lying,4
2019-01-14,23:21:14,3.27,2.1599998,8.309999000000001,-0.01,0.0,0.01,-0.01,0.0,0.01,4,Lying,4
2019-01-14,23:21:14,3.27,2.1599998,8.309999000000001,-0.01,-0.02,0.01,-0.01,-0.02,0.01,4,Lying,4
2019-01-14,23:21:14,3.28,2.1,8.15,-0.01,-0.02,0.01,-0.01,-0.02,0.01,4,Lying,4
2019-01-14,23:21:14,3.28,2.1,8.15,0.0,-0.01,0.01,0.0,-0.01,0.01,4,Lying,4
2019-01-14,23:21:14,3.2099998,2.1299999,8.179999,0.0,-0.01,0.0,0.0,-0.01,0.0,4,Lying,4
2019-01-14,23:21:14,3.2099998,2.1299999,8.179999,0.0,-0.01,0.0,0.0,-0.01,0.0,4,Lying,4
2019-01-14,23:21:14,3.2099998,2.1299999,8.179999,0.0,0.0,0.0,0.0,0.0,0.0,4,Lying,4
2019-01-14,23:21:14,3.1499999,2.1599998,8.15,0.0,0.0,0.0,0.0,0.0,0.0,4,Lying,4
2019-01-14,23:21:14,3.1499999,2.1599998,8.15,0.0,-0.01,0.0,0.0,-0.01,0.0,4,Lying,4
2019-01-14,23:21:15,3.1499999,2.12,8.19,0.0,-0.01,0.0,0.0,-0.01,0.0,4,Lying,4
2019-01-14,23:21:15,3.1499999,2.12,8.19,-0.01,-0.01,0.0,-0.01,-0.01,0.0,4,Lying,4
2019-01-14,23:21:15,3.1999998,2.1299999,8.179999,-0.01,-0.01,0.0,-0.01,-0.01,0.0,4,Lying,4
2019-01-14,23:21:15,3.1999998,2.1299999,8.179999,0.0,-0.01,0.0,0.0,-0.01,0.0,4,Lying,4
2019-01-14,23:21:15,3.1899998,2.1,8.259999,0.0,-0.01,0.0,0.0,-0.01,0.0,4,Lying,4
2019-01-14,23:21:15,3.1899998,2.1,8.259999,0.0,0.0,0.01,0.0,0.0,0.01,4,Lying,4
2019-01-14,23:21:15,3.28,2.09,8.29,0.0,0.0,0.01,0.0,0.0,0.01,4,Lying,4
2019-01-14,23:21:15,3.28,2.09,8.29,0.0,-0.02,0.01,0.0,-0.02,0.01,4,Lying,4
2019-01-14,23:21:15,3.1499999,2.12,8.089999,0.0,-0.02,0.01,0.0,-0.02,0.01,4,Lying,4
2019-01-14,23:21:15,3.1499999,2.12,8.089999,0.0,0.0,0.0,0.0,0.0,0.0,4,Lying,4
2019-01-14,23:21:15,3.1799998,2.1299999,8.16,0.0,0.0,0.0,0.0,0.0,0.0,4,Lying,4
2019-01-14,23:21:15,3.1799998,2.1299999,8.16,0.0,-0.02,0.0,0.0,-0.02,0.0,4,Lying,4
2019-01-14,23:21:15,3.2299998,2.09,8.25,0.0,-0.02,0.0,0.0,-0.02,0.0,4,Lying,4
2019-01-14,23:21:15,3.2299998,2.09,8.25,0.0,-0.02,0.0,0.0,-0.02,0.0,4,Lying,4
2019-01-14,23:21:15,3.1599998,2.1,8.24,0.0,-0.02,0.0,0.0,-0.02,0.0,4,Lying,4
2019-01-14,23:21:15,3.1599998,2.1,8.24,0.0,0.0,0.0,0.0,0.0,0.0,4,Lying,4
2019-01-14,23:21:15,3.24,2.08,8.2,0.0,0.0,0.0,0.0,0.0,0.0,4,Lying,4
2019-01-14,23:21:15,3.24,2.08,8.2,0.0,-0.02,0.01,0.0,-0.02,0.01,4,Lying,4
2019-01-14,23:21:15,3.29,2.1599998,8.16,0.0,-0.02,0.01,0.0,-0.02,0.01,4,Lying,4
2019-01-14,23:21:15,3.29,2.1599998,8.16,0.0,-0.01,0.01,0.0,-0.01,0.01,4,Lying,4
2019-01-14,23:21:15,3.2299998,2.12,8.2,0.0,-0.01,0.01,0.0,-0.01,0.01,4,Lying,4
2019-01-14,23:21:15,3.2299998,2.12,8.2,0.0,-0.01,0.01,0.0,-0.01,0.01,4,Lying,4
2019-01-14,23:21:15,3.2199998,2.11,8.17,0.0,0.0,0.01,0.0,0.0,0.01,4,Lying,4
2019-01-14,23:21:15,3.2199998,2.11,8.17,0.0,0.0,0.01,0.0,0.0,0.01,4,Lying,4
2019-01-14,23:21:15,3.2099998,2.1,8.16,0.0,0.0,0.01,0.0,0.0,0.01,4,Lying,4
2019-01-14,23:21:15,3.2099998,2.1,8.16,0.0,0.0,0.01,0.0,0.0,0.01,4,Lying,4
2019-01-14,23:21:15,3.2199998,2.1,8.24,0.0,0.0,0.01,0.0,0.0,0.01,4,Lying,4
2019-01-14,23:21:15,3.2199998,2.1,8.24,-0.01,-0.01,0.01,-0.01,-0.01,0.01,4,Lying,4
2019-01-14,23:21:15,3.27,2.11,8.219999000000001,-0.01,-0.01,0.01,-0.01,-0.01,0.01,4,Lying,4
2019-01-14,23:21:15,3.27,2.11,8.219999000000001,-0.01,-0.01,0.01,-0.01,-0.01,0.01,4,Lying,4
2019-01-14,23:21:15,3.28,2.1,8.21,-0.01,-0.01,0.01,-0.01,-0.01,0.01,4,Lying,4
2019-01-14,23:21:15,3.28,2.1,8.21,0.0,-0.01,0.01,0.0,-0.01,0.01,4,Lying,4
2019-01-14,23:21:15,3.1899998,2.06,8.19,0.0,-0.01,0.01,0.0,-0.01,0.01,4,Lying,4
2019-01-14,23:21:15,3.1899998,2.06,8.19,0.0,0.0,0.0,0.0,0.0,0.0,4,Lying,4
2019-01-14,23:21:15,3.1899998,2.09,8.16,0.0,0.0,0.0,0.0,0.0,0.0,4,Lying,4
2019-01-14,23:21:15,3.1899998,2.09,8.16,0.0,0.0,0.0,0.0,0.0,0.0,4,Lying,4
2019-01-14,23:21:15,3.29,2.02,8.2,0.0,0.0,0.0,0.0,0.0,0.0,4,Lying,4
2019-01-14,23:21:15,3.29,2.02,8.2,0.0,-0.01,0.01,0.0,-0.01,0.01,4,Lying,4
2019-01-14,23:21:15,3.26,2.06,8.2,0.0,-0.01,0.01,0.0,-0.01,0.01,4,Lying,4
2019-01-14,23:21:15,3.26,2.06,8.2,0.0,0.0,0.01,0.0,0.0,0.01,4,Lying,4
2019-01-14,23:21:15,3.2299998,2.04,8.2,0.0,0.0,0.01,0.0,0.0,0.01,4,Lying,4
2019-01-14,23:21:15,3.2299998,2.04,8.2,0.0,-0.01,0.01,0.0,-0.01,0.01,4,Lying,4
2019-01-14,23:21:15,3.25,2.06,8.259999,0.0,-0.01,0.01,0.0,-0.01,0.01,4,Lying,4
2019-01-14,23:21:16,3.25,2.06,8.259999,0.0,0.0,0.01,0.0,0.0,0.01,4,Lying,4
2019-01-14,23:21:16,3.31,2.06,8.17,0.0,0.0,0.01,0.0,0.0,0.01,4,Lying,4
2019-01-14,23:21:16,3.31,2.06,8.17,0.0,-0.02,0.0,0.0,-0.02,0.0,4,Lying,4
2019-01-14,23:21:16,3.25,2.02,8.219999000000001,0.0,-0.02,0.0,0.0,-0.02,0.0,4,Lying,4
2019-01-14,23:21:16,3.25,2.02,8.219999000000001,0.0,-0.01,0.0,0.0,-0.01,0.0,4,Lying,4
2019-01-14,23:21:16,3.12,1.98,8.25,0.0,-0.01,0.0,0.0,-0.01,0.0,4,Lying,4
2019-01-14,23:21:16,3.12,1.98,8.25,0.0,0.01,0.0,0.0,0.01,0.0,4,Lying,4
2019-01-14,23:21:16,3.2199998,1.99,8.2,0.0,0.01,0.0,0.0,0.01,0.0,4,Lying,4
2019-01-14,23:21:16,3.2199998,1.99,8.2,-0.01,0.0,0.01,-0.01,0.0,0.01,4,Lying,4
2019-01-14,23:21:16,3.3899998999999994,2.07,8.19,-0.01,0.0,0.01,-0.01,0.0,0.01,4,Lying,4
2019-01-14,23:21:16,3.3899998999999994,2.07,8.19,0.0,-0.02,0.01,0.0,-0.02,0.01,4,Lying,4
2019-01-14,23:21:16,3.27,1.99,8.15,0.0,-0.02,0.01,0.0,-0.02,0.01,4,Lying,4
2019-01-14,23:21:16,3.27,1.99,8.15,0.0,0.0,0.0,0.0,0.0,0.0,4,Lying,4
2019-01-14,23:21:16,3.2199998,2.07,8.219999000000001,0.0,0.0,0.0,0.0,0.0,0.0,4,Lying,4
2019-01-14,23:21:16,3.2199998,2.07,8.219999000000001,0.0,0.0,0.0,0.0,0.0,0.0,4,Lying,4
2019-01-14,23:21:16,3.24,2.0,8.24,0.0,0.0,0.0,0.0,0.0,0.0,4,Lying,4
2019-01-14,23:21:16,3.24,2.0,8.24,-0.01,0.0,0.0,-0.01,0.0,0.0,4,Lying,4
2019-01-14,23:21:16,3.26,2.06,8.25,-0.01,0.0,0.0,-0.01,0.0,0.0,4,Lying,4
2019-01-14,23:21:16,3.26,2.06,8.25,0.01,0.0,0.0,0.01,0.0,0.0,4,Lying,4
2019-01-14,23:21:16,3.28,1.99,8.259999,0.01,0.0,0.0,0.01,0.0,0.0,4,Lying,4
2019-01-14,23:21:16,3.28,1.99,8.259999,0.0,0.0,0.0,0.0,0.0,0.0,4,Lying,4
2019-01-14,23:21:16,3.31,1.98,8.259999,0.0,0.0,0.0,0.0,0.0,0.0,4,Lying,4
2019-01-14,23:21:16,3.31,1.98,8.259999,0.0,0.0,0.0,0.0,0.0,0.0,4,Lying,4
2019-01-14,23:21:16,3.2199998,2.0,8.2,0.0,0.0,0.0,0.0,0.0,0.0,4,Lying,4
2019-01-14,23:21:16,3.2199998,2.0,8.2,0.02,0.0,0.0,0.02,0.0,0.0,4,Lying,4
2019-01-14,23:21:16,3.25,2.01,8.219999000000001,0.02,0.0,0.0,0.02,0.0,0.0,4,Lying,4
2019-01-14,23:21:16,3.25,2.01,8.219999000000001,0.01,0.0,0.0,0.01,0.0,0.0,4,Lying,4
2019-01-14,23:21:16,3.2099998,2.06,8.23,0.01,0.0,0.0,0.01,0.0,0.0,4,Lying,4
2019-01-14,23:21:16,3.2099998,2.06,8.23,0.01,0.01,0.0,0.01,0.01,0.0,4,Lying,4
2019-01-14,23:21:16,3.2299998,2.18,8.19,0.01,0.01,0.0,0.01,0.01,0.0,4,Lying,4
2019-01-14,23:21:16,3.2299998,2.18,8.19,0.02,0.04,0.0,0.02,0.04,0.0,4,Lying,4
2019-01-14,23:21:16,3.27,2.1,8.21,0.02,0.04,0.0,0.02,0.04,0.0,4,Lying,4
2019-01-14,23:21:16,3.27,2.1,8.21,0.02,0.07,0.0,0.02,0.07,0.0,4,Lying,4
2019-01-14,23:21:16,3.1,1.8999999,8.24,0.02,0.07,0.0,0.02,0.07,0.0,4,Lying,4
2019-01-14,23:21:16,3.1,1.8999999,8.24,0.04,0.07,-0.01,0.04,0.07,-0.01,4,Lying,4
2019-01-14,23:21:16,3.0,1.8399999,8.219999000000001,0.04,0.07,-0.01,0.04,0.07,-0.01,4,Lying,4
2019-01-14,23:21:16,3.0,1.8399999,8.219999000000001,0.049999997000000004,0.01,-0.02,0.049999997000000004,0.01,-0.02,4,Lying,4
2019-01-14,23:21:16,3.2299998,2.0,8.32,0.049999997000000004,0.01,-0.02,0.049999997000000004,0.01,-0.02,4,Lying,4
2019-01-14,23:21:16,3.2299998,2.0,8.32,0.04,-0.04,0.0,0.04,-0.04,0.0,4,Lying,4
2019-01-14,23:21:16,3.1299999,2.1299999,8.24,0.04,-0.04,0.0,0.04,-0.04,0.0,4,Lying,4
2019-01-14,23:21:16,3.1299999,2.1299999,8.24,0.04,0.0,-0.02,0.04,0.0,-0.02,4,Lying,4
2019-01-14,23:21:16,2.82,2.32,7.95,0.04,0.0,-0.02,0.04,0.0,-0.02,4,Lying,4
2019-01-14,23:21:16,2.82,2.32,7.95,0.01,0.01,-0.02,0.01,0.01,-0.02,4,Lying,4
2019-01-14,23:21:16,3.03,2.23,8.08,0.01,0.01,-0.02,0.01,0.01,-0.02,4,Lying,4
2019-01-14,23:21:17,3.03,2.23,8.08,0.0,-0.04,0.0,0.0,-0.04,0.0,4,Lying,4
2019-01-14,23:21:17,3.33,2.18,8.309999000000001,0.0,-0.04,0.0,0.0,-0.04,0.0,4,Lying,4
2019-01-14,23:21:17,3.33,2.18,8.309999000000001,0.0,-0.02,0.01,0.0,-0.02,0.01,4,Lying,4
2019-01-14,23:21:17,3.08,2.12,8.379999,0.0,-0.02,0.01,0.0,-0.02,0.01,4,Lying,4
2019-01-14,23:21:17,3.08,2.12,8.379999,0.01,0.04,0.0,0.01,0.04,0.0,4,Lying,4
2019-01-14,23:21:17,2.8799999,2.1,8.17,0.01,0.04,0.0,0.01,0.04,0.0,4,Lying,4
2019-01-14,23:21:17,2.8799999,2.1,8.17,0.02,0.03,0.0,0.02,0.03,0.0,4,Lying,4
2019-01-14,23:21:17,2.9399998,2.1399999,8.08,0.02,0.03,0.0,0.02,0.03,0.0,4,Lying,4
2019-01-14,23:21:17,2.9399998,2.1399999,8.08,0.02,-0.02,0.0,0.02,-0.02,0.0,4,Lying,4
2019-01-14,23:21:17,3.2299998,2.09,8.28,0.02,-0.02,0.0,0.02,-0.02,0.0,4,Lying,4
2019-01-14,23:21:17,3.2299998,2.09,8.28,0.0,-0.02,0.01,0.0,-0.02,0.01,4,Lying,4
2019-01-14,23:21:17,3.07,2.17,8.2,0.0,-0.02,0.01,0.0,-0.02,0.01,4,Lying,4
2019-01-14,23:21:17,3.07,2.17,8.2,0.0,0.01,0.0,0.0,0.01,0.0,4,Lying,4
2019-01-14,23:21:17,3.01,2.18,8.139999000000001,0.0,0.01,0.0,0.0,0.01,0.0,4,Lying,4
2019-01-14,23:21:17,3.01,2.18,8.139999000000001,0.0,0.0,0.0,0.0,0.0,0.0,4,Lying,4
2019-01-14,23:21:17,3.1499999,2.22,8.11,0.0,-0.01,0.0,0.0,-0.01,0.0,4,Lying,4
2019-01-14,23:21:17,3.1499999,2.22,8.11,0.0,-0.01,0.0,0.0,-0.01,0.0,4,Lying,4
2019-01-14,23:21:17,3.11,2.22,8.12,0.0,-0.01,0.0,0.0,-0.01,0.0,4,Lying,4
2019-01-14,23:21:17,3.11,2.22,8.12,0.0,-0.02,0.0,0.0,-0.02,0.0,4,Lying,4
2019-01-14,23:21:17,3.03,2.18,8.099999,0.0,-0.02,0.0,0.0,-0.02,0.0,4,Lying,4
2019-01-14,23:21:17,3.03,2.18,8.099999,0.0,0.0,0.0,0.0,0.0,0.0,4,Lying,4
2019-01-14,23:21:17,3.1299999,2.1399999,8.2,-0.01,0.0,0.01,-0.01,0.0,0.01,4,Lying,4
2019-01-14,23:21:17,3.1299999,2.1399999,8.2,-0.01,0.0,0.01,-0.01,0.0,0.01,4,Lying,4
2019-01-14,23:21:17,3.1599998,2.09,8.25,-0.01,0.0,0.01,-0.01,0.0,0.01,4,Lying,4
2019-01-14,23:21:17,3.1599998,2.09,8.25,-0.02,-0.02,0.02,-0.02,-0.02,0.02,4,Lying,4
2019-01-14,23:21:17,3.1499999,2.06,8.24,-0.02,-0.02,0.02,-0.02,-0.02,0.02,4,Lying,4
2019-01-14,23:21:17,3.1499999,2.06,8.24,-0.01,-0.01,0.01,-0.01,-0.01,0.01,4,Lying,4
