date,time,accX,accY,accZ,gyroX,gyroY,gyroZ,magX,magY,magZ,Trial,activity,activity_number
2019-01-17,17:07:49,8.139999000000001,4.0699997,0.5,-0.08,-0.03,0.04,-0.08,-0.03,0.04,3,Lying,4
2019-01-17,17:07:49,8.139999000000001,4.0699997,0.5,-0.09999999400000001,-0.089999996,0.04,-0.09999999400000001,-0.089999996,0.04,3,Lying,4
2019-01-17,17:07:49,8.23,3.9699998,0.59999996,-0.09999999400000001,-0.089999996,0.04,-0.09999999400000001,-0.089999996,0.04,3,Lying,4
2019-01-17,17:07:49,8.23,3.9699998,0.59999996,-0.089999996,-0.04,0.049999997000000004,-0.089999996,-0.04,0.049999997000000004,3,Lying,4
2019-01-17,17:07:49,8.049999,3.96,0.5,-0.089999996,-0.04,0.049999997000000004,-0.089999996,-0.04,0.049999997000000004,3,Lying,4
2019-01-17,17:07:49,8.049999,3.96,0.5,-0.08,0.089999996,0.07,-0.08,0.089999996,0.07,3,Lying,4
2019-01-17,17:07:49,8.25,3.9,0.5,-0.08,0.089999996,0.07,-0.08,0.089999996,0.07,3,Lying,4
2019-01-17,17:07:49,8.25,3.9,0.5,-0.07,0.049999997000000004,0.11,-0.07,0.049999997000000004,0.11,3,Lying,4
2019-01-17,17:07:49,8.36,3.9,0.51,-0.07,0.049999997000000004,0.11,-0.07,0.049999997000000004,0.11,3,Lying,4
2019-01-17,17:07:49,8.36,3.9,0.51,-0.049999997000000004,0.03,0.09999999400000001,-0.049999997000000004,0.03,0.09999999400000001,3,Lying,4
2019-01-17,17:07:49,8.61,3.92,0.53999996,-0.049999997000000004,0.03,0.09999999400000001,-0.049999997000000004,0.03,0.09999999400000001,3,Lying,4
2019-01-17,17:07:49,8.61,3.92,0.53999996,-0.04,0.06,0.12,-0.04,0.06,0.12,3,Lying,4
2019-01-17,17:07:49,8.519999499999999,3.81,0.53,-0.04,0.06,0.12,-0.04,0.06,0.12,3,Lying,4
2019-01-17,17:07:49,8.519999499999999,3.81,0.53,-0.08,0.12,0.11,-0.08,0.12,0.11,3,Lying,4
2019-01-17,17:07:49,8.5,3.71,0.86999995,-0.08,0.12,0.11,-0.08,0.12,0.11,3,Lying,4
2019-01-17,17:07:49,8.5,3.71,0.86999995,-0.11,0.0,0.07,-0.11,0.0,0.07,3,Lying,4
2019-01-17,17:07:49,8.61,3.6599998,0.96999997,-0.11,0.0,0.07,-0.11,0.0,0.07,3,Lying,4
2019-01-17,17:07:49,8.61,3.6599998,0.96999997,-0.089999996,-0.03,0.08,-0.089999996,-0.03,0.08,3,Lying,4
2019-01-17,17:07:49,8.429999,3.52,1.1800001,-0.089999996,-0.03,0.08,-0.089999996,-0.03,0.08,3,Lying,4
2019-01-17,17:07:50,8.429999,3.52,1.1800001,-0.08,0.02,0.07,-0.08,0.02,0.07,3,Lying,4
2019-01-17,17:07:50,8.339999,3.56,1.03,-0.08,0.02,0.07,-0.08,0.02,0.07,3,Lying,4
2019-01-17,17:07:50,8.339999,3.56,1.03,0.02,0.089999996,0.08,0.02,0.089999996,0.08,3,Lying,4
2019-01-17,17:07:50,8.5,3.69,0.89,0.02,0.089999996,0.08,0.02,0.089999996,0.08,3,Lying,4
2019-01-17,17:07:50,8.5,3.69,0.89,0.07,0.049999997000000004,0.09999999400000001,0.07,0.049999997000000004,0.09999999400000001,3,Lying,4
2019-01-17,17:07:50,8.719999000000001,3.7999997000000003,0.69,0.07,0.049999997000000004,0.09999999400000001,0.07,0.049999997000000004,0.09999999400000001,3,Lying,4
2019-01-17,17:07:50,8.719999000000001,3.7999997000000003,0.69,0.089999996,0.03,0.08,0.089999996,0.03,0.08,3,Lying,4
2019-01-17,17:07:50,8.559999000000001,3.79,0.45,0.089999996,0.03,0.08,0.089999996,0.03,0.08,3,Lying,4
2019-01-17,17:07:50,8.559999000000001,3.79,0.45,0.04,0.09999999400000001,0.07,0.04,0.09999999400000001,0.07,3,Lying,4
2019-01-17,17:07:50,8.45,3.69,0.7,0.04,0.09999999400000001,0.07,0.04,0.09999999400000001,0.07,3,Lying,4
2019-01-17,17:07:50,8.45,3.69,0.7,0.0,0.02,0.049999997000000004,0.0,0.02,0.049999997000000004,3,Lying,4
2019-01-17,17:07:50,8.389999000000001,3.4399998,0.84,0.0,0.02,0.049999997000000004,0.0,0.02,0.049999997000000004,3,Lying,4
2019-01-17,17:07:50,8.389999000000001,3.4399998,0.84,-0.02,-0.02,0.0,-0.02,-0.02,0.0,3,Lying,4
2019-01-17,17:07:50,8.04,3.54,0.71999997,-0.02,-0.02,0.0,-0.02,-0.02,0.0,3,Lying,4
2019-01-17,17:07:50,8.04,3.54,0.71999997,0.0,0.21,0.0,0.0,0.21,0.0,3,Lying,4
2019-01-17,17:07:50,8.2,3.6100001000000006,0.71999997,0.0,0.21,0.0,0.0,0.21,0.0,3,Lying,4
2019-01-17,17:07:50,8.2,3.6100001000000006,0.71999997,-0.049999997000000004,0.31,0.06,-0.049999997000000004,0.31,0.06,3,Lying,4
2019-01-17,17:07:50,8.469999000000001,3.5900002,0.84,-0.049999997000000004,0.31,0.06,-0.049999997000000004,0.31,0.06,3,Lying,4
2019-01-17,17:07:50,8.469999000000001,3.5900002,0.84,-0.089999996,0.28,0.08,-0.089999996,0.28,0.08,3,Lying,4
2019-01-17,17:07:50,9.129999,3.6399998999999994,1.45,-0.089999996,0.28,0.08,-0.089999996,0.28,0.08,3,Lying,4
2019-01-17,17:07:50,9.129999,3.6399998999999994,1.45,-0.14999999,0.32999998,0.09999999400000001,-0.14999999,0.32999998,0.09999999400000001,3,Lying,4
2019-01-17,17:07:50,9.089999,3.35,1.94,-0.14999999,0.32999998,0.09999999400000001,-0.14999999,0.32999998,0.09999999400000001,3,Lying,4
2019-01-17,17:07:50,9.089999,3.35,1.94,-0.22999999,0.57,0.11,-0.22999999,0.57,0.11,3,Lying,4
2019-01-17,17:07:50,8.209999,3.26,2.01,-0.22999999,0.57,0.11,-0.22999999,0.57,0.11,3,Lying,4
2019-01-17,17:07:50,8.209999,3.26,2.01,-0.14,0.59999996,-0.089999996,-0.14,0.59999996,-0.089999996,3,Lying,4
2019-01-17,17:07:50,8.049999,3.3899998999999994,2.01,-0.14,0.59999996,-0.089999996,-0.14,0.59999996,-0.089999996,3,Lying,4
2019-01-17,17:07:50,8.049999,3.3899998999999994,2.01,-0.09999999400000001,0.39,-0.13,-0.09999999400000001,0.39,-0.13,3,Lying,4
2019-01-17,17:07:50,8.11,3.29,2.17,-0.09999999400000001,0.39,-0.13,-0.09999999400000001,0.39,-0.13,3,Lying,4
2019-01-17,17:07:50,8.11,3.29,2.17,-0.16,0.31,-0.07,-0.16,0.31,-0.07,3,Lying,4
2019-01-17,17:07:50,8.57,3.69,2.07,-0.16,0.31,-0.07,-0.16,0.31,-0.07,3,Lying,4
2019-01-17,17:07:50,8.57,3.69,2.07,-0.11,0.42,-0.04,-0.11,0.42,-0.04,3,Lying,4
2019-01-17,17:07:50,8.389999000000001,3.8899998999999994,1.85,-0.11,0.42,-0.04,-0.11,0.42,-0.04,3,Lying,4
2019-01-17,17:07:50,8.389999000000001,3.8899998999999994,1.85,-0.17999999,0.59999996,-0.09999999400000001,-0.17999999,0.59999996,-0.09999999400000001,3,Lying,4
2019-01-17,17:07:50,8.269999499999999,3.79,2.37,-0.17999999,0.59999996,-0.09999999400000001,-0.17999999,0.59999996,-0.09999999400000001,3,Lying,4
2019-01-17,17:07:50,8.269999499999999,3.79,2.37,-0.29999998,0.65999997,-0.09999999400000001,-0.29999998,0.65999997,-0.09999999400000001,3,Lying,4
2019-01-17,17:07:50,7.33,3.79,2.81,-0.29999998,0.65999997,-0.09999999400000001,-0.29999998,0.65999997,-0.09999999400000001,3,Lying,4
2019-01-17,17:07:50,7.33,3.79,2.81,-0.38,0.76,-0.08,-0.38,0.76,-0.08,3,Lying,4
2019-01-17,17:07:50,7.490000200000001,3.4199998,3.7,-0.38,0.76,-0.08,-0.38,0.76,-0.08,3,Lying,4
2019-01-17,17:07:50,7.490000200000001,3.4199998,3.7,-0.48,0.56,0.06,-0.48,0.56,0.06,3,Lying,4
2019-01-17,17:07:50,7.45,3.48,4.1899996,-0.48,0.56,0.06,-0.48,0.56,0.06,3,Lying,4
2019-01-17,17:07:50,7.45,3.48,4.1899996,-0.37,0.35,0.14999999,-0.37,0.35,0.14999999,3,Lying,4
2019-01-17,17:07:50,7.62,3.12,4.3399997,-0.37,0.35,0.14999999,-0.37,0.35,0.14999999,3,Lying,4
2019-01-17,17:07:50,7.62,3.12,4.3399997,-0.25,0.26999998,0.17999999,-0.25,0.26999998,0.17999999,3,Lying,4
2019-01-17,17:07:50,7.68,3.05,4.14,-0.25,0.26999998,0.17999999,-0.25,0.26999998,0.17999999,3,Lying,4
2019-01-17,17:07:50,7.68,3.05,4.14,-0.12,0.19,0.17999999,-0.12,0.19,0.17999999,3,Lying,4
2019-01-17,17:07:50,7.64,2.83,4.0499997,-0.12,0.19,0.17999999,-0.12,0.19,0.17999999,3,Lying,4
2019-01-17,17:07:51,7.64,2.83,4.0499997,-0.08,0.089999996,0.17,-0.08,0.089999996,0.17,3,Lying,4
2019-01-17,17:07:51,7.68,2.95,3.9099998,-0.08,0.089999996,0.17,-0.08,0.089999996,0.17,3,Lying,4
2019-01-17,17:07:51,7.68,2.95,3.9099998,-0.04,0.16,0.16,-0.04,0.16,0.16,3,Lying,4
2019-01-17,17:07:51,7.86,2.8899999,3.9999998,-0.04,0.16,0.16,-0.04,0.16,0.16,3,Lying,4
2019-01-17,17:07:51,7.86,2.8899999,3.9999998,-0.09999999400000001,0.08,0.16,-0.09999999400000001,0.08,0.16,3,Lying,4
2019-01-17,17:07:51,7.95,2.83,4.33,-0.09999999400000001,0.08,0.16,-0.09999999400000001,0.08,0.16,3,Lying,4
2019-01-17,17:07:51,7.95,2.83,4.33,-0.08,0.08,0.13,-0.08,0.08,0.13,3,Lying,4
2019-01-17,17:07:51,7.84,2.84,4.16,-0.08,0.08,0.13,-0.08,0.08,0.13,3,Lying,4
2019-01-17,17:07:51,7.84,2.84,4.16,0.01,0.049999997000000004,0.049999997000000004,0.01,0.049999997000000004,0.049999997000000004,3,Lying,4
2019-01-17,17:07:51,7.54,2.86,3.94,0.01,0.049999997000000004,0.049999997000000004,0.01,0.049999997000000004,0.049999997000000004,3,Lying,4
2019-01-17,17:07:51,7.54,2.86,3.94,0.07,0.02,0.0,0.07,0.02,0.0,3,Lying,4
2019-01-17,17:07:51,7.51,2.84,3.87,0.07,0.02,0.0,0.07,0.02,0.0,3,Lying,4
2019-01-17,17:07:51,7.51,2.84,3.87,0.01,0.01,0.04,0.01,0.01,0.04,3,Lying,4
2019-01-17,17:07:51,7.6,2.75,3.92,0.01,0.01,0.04,0.01,0.01,0.04,3,Lying,4
2019-01-17,17:07:51,7.6,2.75,3.92,-0.049999997000000004,0.049999997000000004,0.12,-0.049999997000000004,0.049999997000000004,0.12,3,Lying,4
2019-01-17,17:07:51,7.84,2.76,4.0299997,-0.049999997000000004,0.049999997000000004,0.12,-0.049999997000000004,0.049999997000000004,0.12,3,Lying,4
2019-01-17,17:07:51,7.84,2.76,4.0299997,-0.09999999400000001,0.07,0.14999999,-0.09999999400000001,0.07,0.14999999,3,Lying,4
2019-01-17,17:07:51,7.89,2.6599998,4.2599998,-0.09999999400000001,0.07,0.14999999,-0.09999999400000001,0.07,0.14999999,3,Lying,4
2019-01-17,17:07:51,7.89,2.6599998,4.2599998,-0.12,0.12,0.12,-0.12,0.12,0.12,3,Lying,4
2019-01-17,17:07:51,7.95,2.6499999,4.31,-0.12,0.12,0.12,-0.12,0.12,0.12,3,Lying,4
2019-01-17,17:07:51,7.95,2.6499999,4.31,-0.08,0.16,0.049999997000000004,-0.08,0.16,0.049999997000000004,3,Lying,4
2019-01-17,17:07:51,7.43,2.6499999,4.24,-0.06,0.17,-0.01,-0.06,0.17,-0.01,3,Lying,4
2019-01-17,17:07:51,7.43,2.6499999,4.24,-0.06,0.17,-0.01,-0.06,0.17,-0.01,3,Lying,4
2019-01-17,17:07:51,7.2000003,2.6799998,4.2099996,-0.06,0.17,-0.01,-0.06,0.17,-0.01,3,Lying,4
2019-01-17,17:07:51,7.2000003,2.6799998,4.2099996,-0.08,0.31,0.0,-0.08,0.31,0.0,3,Lying,4
2019-01-17,17:07:51,7.4,2.59,4.64,-0.08,0.31,0.0,-0.08,0.31,0.0,3,Lying,4
2019-01-17,17:07:51,7.4,2.59,4.64,-0.14999999,0.24,0.06,-0.14999999,0.24,0.06,3,Lying,4
2019-01-17,17:07:51,7.56,2.5,4.85,-0.14999999,0.24,0.06,-0.14999999,0.24,0.06,3,Lying,4
2019-01-17,17:07:51,7.56,2.5,4.85,-0.14999999,0.22,0.11,-0.14999999,0.22,0.11,3,Lying,4
2019-01-17,17:07:51,7.48,2.3,5.0199995,-0.11,0.16,0.09999999400000001,-0.11,0.16,0.09999999400000001,3,Lying,4
2019-01-17,17:07:51,7.48,2.3,5.0199995,-0.11,0.16,0.09999999400000001,-0.11,0.16,0.09999999400000001,3,Lying,4
2019-01-17,17:07:51,7.29,2.36,4.7999997,-0.11,0.16,0.09999999400000001,-0.11,0.16,0.09999999400000001,3,Lying,4
2019-01-17,17:07:51,7.29,2.36,4.7999997,-0.02,0.09999999400000001,0.04,-0.02,0.09999999400000001,0.04,3,Lying,4
2019-01-17,17:07:51,7.33,2.33,4.72,-0.02,0.09999999400000001,0.04,-0.02,0.09999999400000001,0.04,3,Lying,4
2019-01-17,17:07:51,7.33,2.33,4.72,-0.03,0.11,0.07,-0.03,0.11,0.07,3,Lying,4
2019-01-17,17:07:51,7.59,2.36,4.9199996,-0.03,0.11,0.07,-0.03,0.11,0.07,3,Lying,4
2019-01-17,17:07:51,7.59,2.36,4.9199996,-0.08,0.14999999,0.06,-0.08,0.14999999,0.06,3,Lying,4
2019-01-17,17:07:51,7.39,2.43,4.8999996,-0.08,0.14999999,0.06,-0.08,0.14999999,0.06,3,Lying,4
2019-01-17,17:07:51,7.39,2.43,4.8999996,-0.06,0.22999999,0.01,-0.06,0.22999999,0.01,3,Lying,4
2019-01-17,17:07:51,7.16,2.3899999,5.1,-0.06,0.22999999,0.01,-0.06,0.22999999,0.01,3,Lying,4
2019-01-17,17:07:51,7.16,2.3899999,5.1,-0.11,0.26,0.02,-0.11,0.26,0.02,3,Lying,4
2019-01-17,17:07:51,7.09,2.23,5.3599997,-0.11,0.26,0.02,-0.11,0.26,0.02,3,Lying,4
2019-01-17,17:07:51,7.09,2.23,5.3599997,-0.13,0.22999999,0.06,-0.13,0.22999999,0.06,3,Lying,4
2019-01-17,17:07:51,7.06,2.18,5.4199996,-0.13,0.22999999,0.06,-0.13,0.22999999,0.06,3,Lying,4
2019-01-17,17:07:52,7.06,2.18,5.4199996,-0.09999999400000001,0.089999996,0.06,-0.09999999400000001,0.089999996,0.06,3,Lying,4
2019-01-17,17:07:52,7.14,2.08,5.3999996,-0.09999999400000001,0.089999996,0.06,-0.09999999400000001,0.089999996,0.06,3,Lying,4
2019-01-17,17:07:52,7.14,2.08,5.3999996,-0.049999997000000004,0.04,0.08,-0.049999997000000004,0.04,0.08,3,Lying,4
2019-01-17,17:07:52,7.23,2.05,5.2599998,-0.049999997000000004,0.04,0.08,-0.049999997000000004,0.04,0.08,3,Lying,4
2019-01-17,17:07:52,7.23,2.05,5.2599998,-0.01,0.04,0.07,-0.01,0.04,0.07,3,Lying,4
2019-01-17,17:07:52,7.2200003,2.09,5.2499995,-0.01,0.04,0.07,-0.01,0.04,0.07,3,Lying,4
2019-01-17,17:07:52,7.2200003,2.09,5.2499995,-0.03,0.09999999400000001,0.049999997000000004,-0.03,0.09999999400000001,0.049999997000000004,3,Lying,4
2019-01-17,17:07:52,7.11,2.1299999,5.3099995,-0.03,0.09999999400000001,0.049999997000000004,-0.03,0.09999999400000001,0.049999997000000004,3,Lying,4
2019-01-17,17:07:52,7.11,2.1299999,5.3099995,-0.04,0.14999999,0.04,-0.04,0.14999999,0.04,3,Lying,4
2019-01-17,17:07:52,6.94,1.97,5.5499997,-0.04,0.14999999,0.04,-0.04,0.14999999,0.04,3,Lying,4
2019-01-17,17:07:52,6.94,1.97,5.5499997,-0.12,0.19999999,0.09999999400000001,-0.12,0.19999999,0.09999999400000001,3,Lying,4
2019-01-17,17:07:52,7.0,1.8499999,5.74,-0.12,0.19999999,0.09999999400000001,-0.12,0.19999999,0.09999999400000001,3,Lying,4
2019-01-17,17:07:52,7.0,1.8499999,5.74,-0.14999999,0.14999999,0.14,-0.14999999,0.14999999,0.14,3,Lying,4
2019-01-17,17:07:52,6.91,1.74,5.87,-0.14999999,0.14999999,0.14,-0.14999999,0.14999999,0.14,3,Lying,4
2019-01-17,17:07:52,6.91,1.74,5.87,-0.07,0.06,0.09999999400000001,-0.07,0.06,0.09999999400000001,3,Lying,4
2019-01-17,17:07:52,6.98,1.77,5.7099996,-0.07,0.06,0.09999999400000001,-0.07,0.06,0.09999999400000001,3,Lying,4
2019-01-17,17:07:52,6.98,1.77,5.7099996,0.0,0.0,0.08,0.0,0.0,0.08,3,Lying,4
2019-01-17,17:07:52,7.08,1.79,5.5099998,0.0,0.0,0.08,0.0,0.0,0.08,3,Lying,4
2019-01-17,17:07:52,7.08,1.79,5.5099998,0.0,0.02,0.089999996,0.0,0.02,0.089999996,3,Lying,4
2019-01-17,17:07:52,7.12,1.52,5.74,0.0,0.02,0.089999996,0.0,0.02,0.089999996,3,Lying,4
2019-01-17,17:07:52,7.12,1.52,5.74,-0.04,0.08,0.07,-0.04,0.08,0.07,3,Lying,4
2019-01-17,17:07:52,6.67,1.75,5.4599996,-0.04,0.08,0.07,-0.04,0.08,0.07,3,Lying,4
2019-01-17,17:07:52,6.67,1.75,5.4599996,0.02,0.16,0.02,0.02,0.16,0.02,3,Lying,4
2019-01-17,17:07:52,6.78,1.6499999,5.7799997,0.02,0.16,0.02,0.02,0.16,0.02,3,Lying,4
2019-01-17,17:07:52,6.78,1.6499999,5.7799997,-0.089999996,0.11,0.13,-0.089999996,0.11,0.13,3,Lying,4
2019-01-17,17:07:52,7.17,1.47,6.1,-0.089999996,0.11,0.13,-0.089999996,0.11,0.13,3,Lying,4
2019-01-17,17:07:52,7.17,1.47,6.1,-0.09999999400000001,-0.02,0.14999999,-0.09999999400000001,-0.02,0.14999999,3,Lying,4
2019-01-17,17:07:52,7.09,1.76,5.6299996,-0.09999999400000001,-0.02,0.14999999,-0.09999999400000001,-0.02,0.14999999,3,Lying,4
2019-01-17,17:07:52,7.09,1.76,5.6299996,-0.03,0.049999997000000004,0.11,-0.03,0.049999997000000004,0.11,3,Lying,4
2019-01-17,17:07:52,7.08,1.6299999,5.7999997,-0.03,0.049999997000000004,0.11,-0.03,0.049999997000000004,0.11,3,Lying,4
2019-01-17,17:07:52,7.08,1.6299999,5.7999997,-0.07,-0.01,0.11,-0.07,-0.01,0.11,3,Lying,4
2019-01-17,17:07:52,6.93,1.6499999,5.62,-0.07,-0.01,0.11,-0.07,-0.01,0.11,3,Lying,4
2019-01-17,17:07:52,6.93,1.6499999,5.62,-0.01,-0.02,0.04,-0.01,-0.02,0.04,3,Lying,4
2019-01-17,17:07:52,6.87,1.49,5.6899996,-0.01,-0.02,0.04,-0.01,-0.02,0.04,3,Lying,4
2019-01-17,17:07:52,6.87,1.49,5.6899996,-0.07,-0.01,0.07,-0.07,-0.01,0.07,3,Lying,4
2019-01-17,17:07:52,7.09,1.4,5.9599996,-0.07,-0.01,0.07,-0.07,-0.01,0.07,3,Lying,4
2019-01-17,17:07:52,7.09,1.4,5.9599996,-0.12,0.0,0.089999996,-0.12,0.0,0.089999996,3,Lying,4
2019-01-17,17:07:52,7.02,1.34,5.9599996,-0.12,0.0,0.089999996,-0.12,0.0,0.089999996,3,Lying,4
2019-01-17,17:07:52,7.02,1.34,5.9599996,-0.07,0.049999997000000004,0.049999997000000004,-0.07,0.049999997000000004,0.049999997000000004,3,Lying,4
2019-01-17,17:07:52,6.91,1.26,5.9799995,-0.07,0.049999997000000004,0.049999997000000004,-0.07,0.049999997000000004,0.049999997000000004,3,Lying,4
2019-01-17,17:07:52,6.91,1.26,5.9799995,-0.04,0.02,0.02,-0.04,0.02,0.02,3,Lying,4
2019-01-17,17:07:52,6.98,1.3299999,5.89,-0.04,0.02,0.02,-0.04,0.02,0.02,3,Lying,4
2019-01-17,17:07:52,6.98,1.3299999,5.89,-0.02,-0.01,0.03,-0.02,-0.01,0.03,3,Lying,4
2019-01-17,17:07:52,7.43,1.28,6.16,-0.02,-0.01,0.03,-0.02,-0.01,0.03,3,Lying,4
2019-01-17,17:07:52,7.43,1.28,6.16,0.0,-0.09999999400000001,0.0,0.0,-0.09999999400000001,0.0,3,Lying,4
2019-01-17,17:07:52,7.3,1.5699999,5.5799994,0.0,-0.09999999400000001,0.0,0.0,-0.09999999400000001,0.0,3,Lying,4
2019-01-17,17:07:53,7.3,1.5699999,5.5799994,0.07,-0.19,-0.11,0.07,-0.19,-0.11,3,Lying,4
2019-01-17,17:07:53,6.61,1.5,5.45,0.07,-0.19,-0.11,0.07,-0.19,-0.11,3,Lying,4
2019-01-17,17:07:53,6.61,1.5,5.45,0.089999996,-0.19,-0.17,0.089999996,-0.19,-0.17,3,Lying,4
2019-01-17,17:07:53,6.83,1.43,5.5399995,0.089999996,-0.19,-0.17,0.089999996,-0.19,-0.17,3,Lying,4
2019-01-17,17:07:53,6.83,1.43,5.5399995,0.02,-0.45,-0.06,0.02,-0.45,-0.06,3,Lying,4
2019-01-17,17:07:53,7.35,1.54,5.4799995,0.02,-0.45,-0.06,0.02,-0.45,-0.06,3,Lying,4
2019-01-17,17:07:53,7.35,1.54,5.4799995,0.02,-0.47,0.02,0.02,-0.47,0.02,3,Lying,4
2019-01-17,17:07:53,7.09,1.5,4.8399997,0.02,-0.47,0.02,0.02,-0.47,0.02,3,Lying,4
2019-01-17,17:07:53,7.09,1.5,4.8399997,0.17,-0.19,0.0,0.17,-0.19,0.0,3,Lying,4
2019-01-17,17:07:53,7.32,1.4599999,4.99,0.17,-0.19,0.0,0.17,-0.19,0.0,3,Lying,4
2019-01-17,17:07:53,7.32,1.4599999,4.99,0.089999996,-0.03,0.049999997000000004,0.089999996,-0.03,0.049999997000000004,3,Lying,4
2019-01-17,17:07:53,7.37,1.47,5.1099997,0.089999996,-0.03,0.049999997000000004,0.089999996,-0.03,0.049999997000000004,3,Lying,4
2019-01-17,17:07:53,7.37,1.47,5.1099997,0.02,0.04,0.06,0.02,0.04,0.06,3,Lying,4
2019-01-17,17:07:53,7.740000200000001,1.5699999,5.2999997,0.0,0.06,0.07,0.0,0.06,0.07,3,Lying,4
2019-01-17,17:07:53,7.740000200000001,1.5699999,5.2999997,0.0,0.06,0.07,0.0,0.06,0.07,3,Lying,4
2019-01-17,17:07:53,7.94,1.6199999,5.41,0.0,0.06,0.07,0.0,0.06,0.07,3,Lying,4
2019-01-17,17:07:53,7.94,1.6199999,5.41,0.01,0.13,0.089999996,0.01,0.13,0.089999996,3,Lying,4
2019-01-17,17:07:53,7.76,1.53,5.64,0.01,0.13,0.089999996,0.01,0.13,0.089999996,3,Lying,4
2019-01-17,17:07:53,7.76,1.53,5.64,0.08,0.16,0.0,0.08,0.16,0.0,3,Lying,4
2019-01-17,17:07:53,7.54,1.5799999,5.43,0.08,0.16,0.0,0.08,0.16,0.0,3,Lying,4
2019-01-17,17:07:53,7.54,1.5799999,5.43,0.049999997000000004,0.01,-0.07,0.049999997000000004,0.01,-0.07,3,Lying,4
2019-01-17,17:07:53,7.18,1.54,5.41,0.049999997000000004,0.01,-0.07,0.049999997000000004,0.01,-0.07,3,Lying,4
2019-01-17,17:07:53,7.18,1.54,5.41,0.03,-0.02,-0.13,0.03,-0.02,-0.13,3,Lying,4
2019-01-17,17:07:53,6.92,1.53,5.16,0.03,-0.02,-0.13,0.03,-0.02,-0.13,3,Lying,4
2019-01-17,17:07:53,6.92,1.53,5.16,0.049999997000000004,0.0,-0.09999999400000001,0.049999997000000004,0.0,-0.09999999400000001,3,Lying,4
2019-01-17,17:07:53,7.16,1.51,5.24,0.049999997000000004,0.0,-0.09999999400000001,0.049999997000000004,0.0,-0.09999999400000001,3,Lying,4
2019-01-17,17:07:53,7.16,1.51,5.24,0.0,-0.089999996,-0.02,0.0,-0.089999996,-0.02,3,Lying,4
2019-01-17,17:07:53,7.66,1.5699999,5.49,0.0,-0.089999996,-0.02,0.0,-0.089999996,-0.02,3,Lying,4
2019-01-17,17:07:53,7.66,1.5699999,5.49,-0.03,-0.22,-0.02,-0.03,-0.22,-0.02,3,Lying,4
2019-01-17,17:07:53,7.61,1.8,5.2299995,-0.03,-0.22,-0.02,-0.03,-0.22,-0.02,3,Lying,4
2019-01-17,17:07:53,7.61,1.8,5.2299995,0.04,-0.14,-0.049999997000000004,0.04,-0.14,-0.049999997000000004,3,Lying,4
2019-01-17,17:07:53,7.84,1.76,5.2899995,0.04,-0.14,-0.049999997000000004,0.04,-0.14,-0.049999997000000004,3,Lying,4
2019-01-17,17:07:53,7.84,1.76,5.2899995,-0.02,-0.17999999,-0.08,-0.02,-0.17999999,-0.08,3,Lying,4
2019-01-17,17:07:53,7.61,1.8699999,5.3399997,-0.02,-0.17999999,-0.08,-0.02,-0.17999999,-0.08,3,Lying,4
2019-01-17,17:07:53,7.61,1.8699999,5.3399997,0.01,-0.12,-0.16,0.01,-0.12,-0.16,3,Lying,4
2019-01-17,17:07:53,6.82,1.9200001,4.7599998,0.01,-0.12,-0.16,0.01,-0.12,-0.16,3,Lying,4
2019-01-17,17:07:53,6.82,1.9200001,4.7599998,0.14999999,0.03,-0.16,0.14999999,0.03,-0.16,3,Lying,4
2019-01-17,17:07:53,7.19,1.8499999,5.3399997,0.02,-0.17,-0.089999996,0.02,-0.17,-0.089999996,3,Lying,4
2019-01-17,17:07:53,7.19,1.8499999,5.3399997,0.02,-0.17,-0.089999996,0.02,-0.17,-0.089999996,3,Lying,4
2019-01-17,17:07:53,6.89,1.96,4.74,0.02,-0.17,-0.089999996,0.02,-0.17,-0.089999996,3,Lying,4
2019-01-17,17:07:53,6.89,1.96,4.74,0.08,0.14,0.089999996,0.08,0.14,0.089999996,3,Lying,4
2019-01-17,17:07:53,7.21,1.97,4.56,0.08,0.14,0.089999996,0.08,0.14,0.089999996,3,Lying,4
2019-01-17,17:07:53,7.21,1.97,4.56,0.0,0.03,0.16,0.0,0.03,0.16,3,Lying,4
2019-01-17,17:07:53,7.85,1.6700001,5.2999997,0.0,0.03,0.16,0.0,0.03,0.16,3,Lying,4
2019-01-17,17:07:53,7.85,1.6700001,5.2999997,-0.17,-0.089999996,0.24,-0.17,-0.089999996,0.24,3,Lying,4
2019-01-17,17:07:53,7.86,1.6399999,5.22,-0.17,-0.089999996,0.24,-0.17,-0.089999996,0.24,3,Lying,4
2019-01-17,17:07:54,7.86,1.6399999,5.22,-0.04,0.03,0.14999999,-0.04,0.03,0.14999999,3,Lying,4
2019-01-17,17:07:54,7.36,1.5799999,4.95,-0.04,0.03,0.14999999,-0.04,0.03,0.14999999,3,Lying,4
2019-01-17,17:07:54,7.36,1.5799999,4.95,0.03,0.12,0.089999996,0.03,0.12,0.089999996,3,Lying,4
2019-01-17,17:07:54,7.26,1.52,5.0399995,0.03,0.12,0.089999996,0.03,0.12,0.089999996,3,Lying,4
2019-01-17,17:07:54,7.26,1.52,5.0399995,-0.04,0.26,0.17999999,-0.04,0.26,0.17999999,3,Lying,4
2019-01-17,17:07:54,7.5,1.35,5.64,-0.04,0.26,0.17999999,-0.04,0.26,0.17999999,3,Lying,4
2019-01-17,17:07:54,7.5,1.35,5.64,-0.04,0.34,0.24,-0.04,0.34,0.24,3,Lying,4
2019-01-17,17:07:54,7.56,1.6299999,5.68,-0.04,0.34,0.24,-0.04,0.34,0.24,3,Lying,4
2019-01-17,17:07:54,7.56,1.6299999,5.68,0.0,0.19,0.13,0.0,0.19,0.13,3,Lying,4
2019-01-17,17:07:54,7.42,1.41,5.68,0.0,0.19,0.13,0.0,0.19,0.13,3,Lying,4
2019-01-17,17:07:54,7.42,1.41,5.68,-0.04,-0.08,0.0,-0.04,-0.08,0.0,3,Lying,4
2019-01-17,17:07:54,7.66,1.38,5.4999995,-0.04,-0.08,0.0,-0.04,-0.08,0.0,3,Lying,4
2019-01-17,17:07:54,7.66,1.38,5.4999995,0.06,-0.17999999,0.02,0.06,-0.17999999,0.02,3,Lying,4
2019-01-17,17:07:54,7.9700003,1.8299999,4.8599997,0.06,-0.17999999,0.02,0.06,-0.17999999,0.02,3,Lying,4
2019-01-17,17:07:54,7.9700003,1.8299999,4.8599997,0.11,-0.12,-0.02,0.11,-0.12,-0.02,3,Lying,4
2019-01-17,17:07:54,7.73,1.9200001,4.49,0.11,-0.12,-0.02,0.11,-0.12,-0.02,3,Lying,4
2019-01-17,17:07:54,7.73,1.9200001,4.49,0.0,0.14999999,0.049999997000000004,0.0,0.14999999,0.049999997000000004,3,Lying,4
2019-01-17,17:07:54,7.52,1.78,4.47,0.0,0.14999999,0.049999997000000004,0.0,0.14999999,0.049999997000000004,3,Lying,4
2019-01-17,17:07:54,7.52,1.78,4.47,-0.21,0.24,0.12,-0.21,0.24,0.12,3,Lying,4
2019-01-17,17:07:54,7.29,1.14,5.8399997,-0.21,0.24,0.12,-0.21,0.24,0.12,3,Lying,4
2019-01-17,17:07:54,7.29,1.14,5.8399997,-0.34,0.06,-0.17999999,-0.34,0.06,-0.17999999,3,Lying,4
2019-01-17,17:07:54,7.08,1.1,6.0199995,-0.34,0.06,-0.17999999,-0.34,0.06,-0.17999999,3,Lying,4
2019-01-17,17:07:54,7.08,1.1,6.0199995,-0.17,0.16,-0.14999999,-0.17,0.16,-0.14999999,3,Lying,4
2019-01-17,17:07:54,7.29,1.29,6.3099995,-0.17,0.16,-0.14999999,-0.17,0.16,-0.14999999,3,Lying,4
2019-01-17,17:07:54,7.29,1.29,6.3099995,-0.12,0.17999999,-0.09999999400000001,-0.12,0.17999999,-0.09999999400000001,3,Lying,4
2019-01-17,17:07:54,6.93,1.36,6.0899997,-0.12,0.17999999,-0.09999999400000001,-0.12,0.17999999,-0.09999999400000001,3,Lying,4
2019-01-17,17:07:54,6.93,1.36,6.0899997,-0.09999999400000001,0.25,-0.16,-0.09999999400000001,0.25,-0.16,3,Lying,4
2019-01-17,17:07:54,6.88,1.56,5.7999997,-0.09999999400000001,0.25,-0.16,-0.09999999400000001,0.25,-0.16,3,Lying,4
2019-01-17,17:07:54,6.88,1.56,5.7999997,-0.14999999,0.21,-0.12,-0.14999999,0.21,-0.12,3,Lying,4
2019-01-17,17:07:54,7.15,1.41,5.7799997,-0.14999999,0.21,-0.12,-0.14999999,0.21,-0.12,3,Lying,4
2019-01-17,17:07:54,7.15,1.41,5.7799997,0.0,-0.26999998,-0.21,0.0,-0.26999998,-0.21,3,Lying,4
2019-01-17,17:07:54,7.19,1.35,6.0399995,0.0,-0.26999998,-0.21,0.0,-0.26999998,-0.21,3,Lying,4
2019-01-17,17:07:54,7.19,1.35,6.0399995,0.0,-0.38,-0.22,0.0,-0.38,-0.22,3,Lying,4
2019-01-17,17:07:54,7.18,1.4499999,5.5399995,0.0,-0.38,-0.22,0.0,-0.38,-0.22,3,Lying,4
2019-01-17,17:07:54,7.18,1.4499999,5.5399995,0.049999997000000004,-0.16,-0.19,0.049999997000000004,-0.16,-0.19,3,Lying,4
2019-01-17,17:07:54,6.83,1.37,5.4399996,0.049999997000000004,-0.16,-0.19,0.049999997000000004,-0.16,-0.19,3,Lying,4
2019-01-17,17:07:54,6.83,1.37,5.4399996,-0.04,-0.01,-0.14,-0.04,-0.01,-0.14,3,Lying,4
2019-01-17,17:07:54,6.59,1.39,5.3199997,-0.04,-0.01,-0.14,-0.04,-0.01,-0.14,3,Lying,4
2019-01-17,17:07:54,6.59,1.39,5.3199997,-0.06,0.07,-0.13,-0.06,0.07,-0.13,3,Lying,4
2019-01-17,17:07:54,6.3,1.36,5.3099995,-0.06,0.07,-0.13,-0.06,0.07,-0.13,3,Lying,4
2019-01-17,17:07:54,6.3,1.36,5.3099995,-0.08,0.14999999,-0.03,-0.08,0.14999999,-0.03,3,Lying,4
2019-01-17,17:07:54,6.03,1.53,5.0299997,-0.08,0.14999999,-0.03,-0.08,0.14999999,-0.03,3,Lying,4
2019-01-17,17:07:54,6.03,1.53,5.0299997,-0.14999999,0.089999996,0.06,-0.14999999,0.089999996,0.06,3,Lying,4
2019-01-17,17:07:54,6.75,1.26,6.3099995,-0.14999999,0.089999996,0.06,-0.14999999,0.089999996,0.06,3,Lying,4
2019-01-17,17:07:54,6.75,1.26,6.3099995,-0.14999999,-0.34,0.049999997000000004,-0.14999999,-0.34,0.049999997000000004,3,Lying,4
2019-01-17,17:07:54,6.8,0.83000004,6.5299997,-0.14999999,-0.34,0.049999997000000004,-0.14999999,-0.34,0.049999997000000004,3,Lying,4
2019-01-17,17:07:55,6.8,0.83000004,6.5299997,-0.14999999,-0.03,0.07,-0.14999999,-0.03,0.07,3,Lying,4
2019-01-17,17:07:55,7.4,1.22,5.9599996,-0.07,0.11,0.22,-0.07,0.11,0.22,3,Lying,4
2019-01-17,17:07:55,7.4,1.22,5.9599996,-0.07,0.11,0.22,-0.07,0.11,0.22,3,Lying,4
2019-01-17,17:07:55,6.9500003,0.96000004,5.4599996,-0.07,0.11,0.22,-0.07,0.11,0.22,3,Lying,4
2019-01-17,17:07:55,6.9500003,0.96000004,5.4599996,-0.07,-0.11,0.04,-0.07,-0.11,0.04,3,Lying,4
2019-01-17,17:07:55,7.44,1.13,5.8599997,-0.07,-0.11,0.04,-0.07,-0.11,0.04,3,Lying,4
2019-01-17,17:07:55,7.44,1.13,5.8599997,0.0,-0.52,0.0,0.0,-0.52,0.0,3,Lying,4
2019-01-17,17:07:55,7.89,1.28,5.5499997,0.0,-0.52,0.0,0.0,-0.52,0.0,3,Lying,4
2019-01-17,17:07:55,7.89,1.28,5.5499997,0.06,-0.24,-0.02,0.06,-0.24,-0.02,3,Lying,4
2019-01-17,17:07:55,7.58,1.4,5.5299997,0.06,-0.24,-0.02,0.06,-0.24,-0.02,3,Lying,4
2019-01-17,17:07:55,7.58,1.4,5.5299997,0.16,0.29,0.03,0.16,0.29,0.03,3,Lying,4
2019-01-17,17:07:55,7.38,1.18,5.7,0.16,0.29,0.03,0.16,0.29,0.03,3,Lying,4
2019-01-17,17:07:55,7.38,1.18,5.7,0.12,0.26,-0.01,0.12,0.26,-0.01,3,Lying,4
2019-01-17,17:07:55,7.17,1.71,5.41,0.12,0.26,-0.01,0.12,0.26,-0.01,3,Lying,4
2019-01-17,17:07:55,7.17,1.71,5.41,0.19,0.32,-0.02,0.19,0.32,-0.02,3,Lying,4
2019-01-17,17:07:55,7.12,1.48,5.64,0.19,0.32,-0.02,0.19,0.32,-0.02,3,Lying,4
2019-01-17,17:07:55,7.12,1.48,5.64,0.06,0.28,-0.03,0.06,0.28,-0.03,3,Lying,4
2019-01-17,17:07:55,6.98,1.47,5.7299995,0.0,0.17999999,-0.049999997000000004,0.0,0.17999999,-0.049999997000000004,3,Lying,4
2019-01-17,17:07:55,6.98,1.47,5.7299995,0.0,0.17999999,-0.049999997000000004,0.0,0.17999999,-0.049999997000000004,3,Lying,4
2019-01-17,17:07:55,6.91,1.47,5.8199997,0.0,0.17999999,-0.049999997000000004,0.0,0.17999999,-0.049999997000000004,3,Lying,4
2019-01-17,17:07:55,6.91,1.47,5.8199997,-0.04,0.21,0.0,-0.04,0.21,0.0,3,Lying,4
2019-01-17,17:07:55,6.8,1.36,6.0299997,-0.04,0.21,0.0,-0.04,0.21,0.0,3,Lying,4
2019-01-17,17:07:55,6.8,1.36,6.0299997,-0.07,0.17999999,0.0,-0.07,0.17999999,0.0,3,Lying,4
2019-01-17,17:07:55,6.7000003,1.4599999,6.0099998,-0.07,0.17999999,0.0,-0.07,0.17999999,0.0,3,Lying,4
2019-01-17,17:07:55,6.7000003,1.4599999,6.0099998,-0.049999997000000004,0.19999999,0.0,-0.049999997000000004,0.19999999,0.0,3,Lying,4
2019-01-17,17:07:55,6.7000003,1.26,6.2499995,-0.049999997000000004,0.19999999,0.0,-0.049999997000000004,0.19999999,0.0,3,Lying,4
2019-01-17,17:07:55,6.7000003,1.26,6.2499995,-0.07,0.22,0.03,-0.07,0.22,0.03,3,Lying,4
2019-01-17,17:07:55,6.26,1.4399998999999999,5.93,-0.07,0.22,0.03,-0.07,0.22,0.03,3,Lying,4
2019-01-17,17:07:55,6.26,1.4399998999999999,5.93,-0.049999997000000004,0.17999999,0.07,-0.049999997000000004,0.17999999,0.07,3,Lying,4
2019-01-17,17:07:55,6.62,1.23,6.2999997,-0.049999997000000004,0.17999999,0.07,-0.049999997000000004,0.17999999,0.07,3,Lying,4
2019-01-17,17:07:55,6.62,1.23,6.2999997,-0.17999999,0.08,0.19,-0.17999999,0.08,0.19,3,Lying,4
2019-01-17,17:07:55,6.89,1.04,6.4599996,-0.17999999,0.08,0.19,-0.17999999,0.08,0.19,3,Lying,4
2019-01-17,17:07:55,6.89,1.04,6.4599996,-0.16,0.13,0.14,-0.16,0.13,0.14,3,Lying,4
2019-01-17,17:07:55,6.79,1.1,6.43,-0.16,0.13,0.14,-0.16,0.13,0.14,3,Lying,4
2019-01-17,17:07:55,6.79,1.1,6.43,-0.089999996,0.16,0.04,-0.089999996,0.16,0.04,3,Lying,4
2019-01-17,17:07:55,6.56,1.09,6.559999499999999,-0.089999996,0.16,0.04,-0.089999996,0.16,0.04,3,Lying,4
2019-01-17,17:07:55,6.56,1.09,6.559999499999999,-0.049999997000000004,0.14,-0.01,-0.049999997000000004,0.14,-0.01,3,Lying,4
2019-01-17,17:07:55,6.36,1.14,6.4799995,-0.049999997000000004,0.14,-0.01,-0.049999997000000004,0.14,-0.01,3,Lying,4
2019-01-17,17:07:55,6.36,1.14,6.4799995,0.0,0.12,-0.02,0.0,0.12,-0.02,3,Lying,4
2019-01-17,17:07:55,6.33,1.12,6.4599996,0.0,0.12,-0.02,0.0,0.12,-0.02,3,Lying,4
2019-01-17,17:07:55,6.33,1.12,6.4599996,0.0,0.04,-0.01,0.0,0.04,-0.01,3,Lying,4
2019-01-17,17:07:56,6.23,1.1,6.4399996,0.0,0.04,-0.01,0.0,0.04,-0.01,3,Lying,4
2019-01-17,17:07:56,6.23,1.1,6.4399996,0.01,-0.02,-0.02,0.01,-0.02,-0.02,3,Lying,4
2019-01-17,17:07:56,6.48,1.06,6.5799994,0.01,-0.02,-0.02,0.01,-0.02,-0.02,3,Lying,4
2019-01-17,17:07:56,6.48,1.06,6.5799994,0.0,-0.049999997000000004,0.0,0.0,-0.049999997000000004,0.0,3,Lying,4
2019-01-17,17:07:56,6.53,1.03,6.4199996,0.0,-0.049999997000000004,0.0,0.0,-0.049999997000000004,0.0,3,Lying,4
2019-01-17,17:07:56,6.53,1.03,6.4199996,0.03,-0.02,-0.049999997000000004,0.03,-0.02,-0.049999997000000004,3,Lying,4
2019-01-17,17:07:56,6.33,1.16,6.2999997,0.03,-0.02,-0.049999997000000004,0.03,-0.02,-0.049999997000000004,3,Lying,4
2019-01-17,17:07:56,6.33,1.16,6.2999997,0.089999996,0.03,-0.09999999400000001,0.089999996,0.03,-0.09999999400000001,3,Lying,4
2019-01-17,17:07:56,6.36,1.14,6.4599996,0.089999996,0.03,-0.09999999400000001,0.089999996,0.03,-0.09999999400000001,3,Lying,4
2019-01-17,17:07:56,6.36,1.14,6.4599996,0.07,0.03,-0.07,0.07,0.03,-0.07,3,Lying,4
2019-01-17,17:07:56,6.42,1.23,6.5099998,0.07,0.03,-0.07,0.07,0.03,-0.07,3,Lying,4
2019-01-17,17:07:56,6.42,1.23,6.5099998,0.06,0.01,-0.049999997000000004,0.06,0.01,-0.049999997000000004,3,Lying,4
2019-01-17,17:07:56,6.39,1.34,6.5099998,0.06,0.01,-0.049999997000000004,0.06,0.01,-0.049999997000000004,3,Lying,4
2019-01-17,17:07:56,6.39,1.34,6.5099998,0.03,0.02,-0.04,0.03,0.02,-0.04,3,Lying,4
2019-01-17,17:07:56,6.39,1.31,6.5199995,0.03,0.02,-0.04,0.03,0.02,-0.04,3,Lying,4
2019-01-17,17:07:56,6.39,1.31,6.5199995,0.02,0.0,-0.03,0.02,0.0,-0.03,3,Lying,4
2019-01-17,17:07:56,6.26,1.3299999,6.4399996,0.02,0.0,-0.03,0.02,0.0,-0.03,3,Lying,4
2019-01-17,17:07:56,6.26,1.3299999,6.4399996,0.01,-0.01,-0.03,0.01,-0.01,-0.03,3,Lying,4
2019-01-17,17:07:56,6.27,1.39,6.43,0.01,-0.01,-0.03,0.01,-0.01,-0.03,3,Lying,4
2019-01-17,17:07:56,6.27,1.39,6.43,0.01,-0.02,-0.01,0.01,-0.02,-0.01,3,Lying,4
2019-01-17,17:07:56,6.3,1.42,6.3299994,0.01,-0.02,-0.01,0.01,-0.02,-0.01,3,Lying,4
2019-01-17,17:07:56,6.3,1.42,6.3299994,0.01,-0.04,0.0,0.01,-0.04,0.0,3,Lying,4
2019-01-17,17:07:56,6.54,1.29,6.4799995,0.01,-0.04,0.0,0.01,-0.04,0.0,3,Lying,4
2019-01-17,17:07:56,6.54,1.29,6.4799995,0.0,-0.07,0.01,0.0,-0.07,0.01,3,Lying,4
2019-01-17,17:07:56,6.51,1.29,6.4999995,0.0,-0.07,0.01,0.0,-0.07,0.01,3,Lying,4
2019-01-17,17:07:56,6.51,1.29,6.4999995,0.01,-0.02,0.0,0.01,-0.02,0.0,3,Lying,4
2019-01-17,17:07:56,6.5,1.35,6.41,0.01,-0.02,0.0,0.01,-0.02,0.0,3,Lying,4
2019-01-17,17:07:56,6.5,1.35,6.41,0.01,0.02,0.0,0.01,0.02,0.0,3,Lying,4
2019-01-17,17:07:56,6.31,1.3199999,6.45,0.01,0.02,0.0,0.01,0.02,0.0,3,Lying,4
2019-01-17,17:07:56,6.31,1.3199999,6.45,0.0,0.02,-0.01,0.0,0.02,-0.01,3,Lying,4
2019-01-17,17:07:56,6.3,1.23,6.39,0.0,0.02,-0.01,0.0,0.02,-0.01,3,Lying,4
2019-01-17,17:07:56,6.3,1.23,6.39,0.01,0.0,-0.01,0.01,0.0,-0.01,3,Lying,4
2019-01-17,17:07:56,6.37,1.28,6.43,0.01,0.0,-0.01,0.01,0.0,-0.01,3,Lying,4
2019-01-17,17:07:56,6.37,1.28,6.43,0.0,-0.02,0.0,0.0,-0.02,0.0,3,Lying,4
2019-01-17,17:07:56,6.4900002,1.48,6.4399996,0.0,-0.02,0.0,0.0,-0.02,0.0,3,Lying,4
2019-01-17,17:07:56,6.4900002,1.48,6.4399996,0.0,-0.02,0.0,0.0,-0.02,0.0,3,Lying,4
2019-01-17,17:07:56,6.46,1.4399998999999999,6.5399995,0.0,-0.02,0.0,0.0,-0.02,0.0,3,Lying,4
2019-01-17,17:07:56,6.46,1.4399998999999999,6.5399995,-0.01,-0.02,0.01,-0.01,-0.02,0.01,3,Lying,4
2019-01-17,17:07:56,6.43,1.36,6.4599996,-0.01,-0.02,0.01,-0.01,-0.02,0.01,3,Lying,4
2019-01-17,17:07:56,6.43,1.36,6.4599996,0.0,-0.01,0.0,0.0,-0.01,0.0,3,Lying,4
2019-01-17,17:07:56,6.41,1.4399998999999999,6.349999400000001,0.0,-0.01,0.0,0.0,-0.01,0.0,3,Lying,4
2019-01-17,17:07:56,6.41,1.4399998999999999,6.349999400000001,0.01,-0.02,-0.03,0.01,-0.02,-0.03,3,Lying,4
2019-01-17,17:07:56,6.23,1.47,6.37,0.01,-0.02,-0.03,0.01,-0.02,-0.03,3,Lying,4
2019-01-17,17:07:56,6.23,1.47,6.37,0.02,0.0,-0.03,0.02,0.0,-0.03,3,Lying,4
2019-01-17,17:07:56,6.3,1.39,6.39,0.02,0.0,-0.03,0.02,0.0,-0.03,3,Lying,4
2019-01-17,17:07:56,6.3,1.39,6.39,0.0,-0.01,0.0,0.0,-0.01,0.0,3,Lying,4
2019-01-17,17:07:56,6.33,1.39,6.4399996,0.0,-0.01,0.0,0.0,-0.01,0.0,3,Lying,4
2019-01-17,17:07:57,6.33,1.39,6.4399996,0.0,-0.049999997000000004,0.02,0.0,-0.049999997000000004,0.02,3,Lying,4
2019-01-17,17:07:57,6.48,1.34,6.4199996,0.0,-0.049999997000000004,0.02,0.0,-0.049999997000000004,0.02,3,Lying,4
2019-01-17,17:07:57,6.48,1.34,6.4199996,0.0,-0.04,0.03,0.0,-0.04,0.03,3,Lying,4
2019-01-17,17:07:57,6.4700003,1.34,6.349999400000001,0.0,-0.04,0.03,0.0,-0.04,0.03,3,Lying,4
2019-01-17,17:07:57,6.4700003,1.34,6.349999400000001,0.0,-0.04,0.01,0.0,-0.04,0.01,3,Lying,4
2019-01-17,17:07:57,6.4,1.36,6.37,0.0,-0.04,0.01,0.0,-0.04,0.01,3,Lying,4
2019-01-17,17:07:57,6.4,1.36,6.37,0.0,-0.03,0.01,0.0,-0.03,0.01,3,Lying,4
2019-01-17,17:07:57,6.4,1.37,6.3299994,0.0,-0.03,0.01,0.0,-0.03,0.01,3,Lying,4
2019-01-17,17:07:57,6.4,1.37,6.3299994,0.0,-0.03,0.01,0.0,-0.03,0.01,3,Lying,4
2019-01-17,17:07:57,6.56,1.3,6.349999400000001,0.0,-0.03,0.01,0.0,-0.03,0.01,3,Lying,4
2019-01-17,17:07:57,6.56,1.3,6.349999400000001,0.0,-0.03,0.01,0.0,-0.03,0.01,3,Lying,4
2019-01-17,17:07:57,6.54,1.36,6.39,0.0,-0.03,0.01,0.0,-0.03,0.01,3,Lying,4
2019-01-17,17:07:57,6.54,1.36,6.39,0.0,0.0,0.0,0.0,0.0,0.0,3,Lying,4
2019-01-17,17:07:57,6.4,1.3,6.45,0.0,0.0,0.0,0.0,0.0,0.0,3,Lying,4
2019-01-17,17:07:57,6.4,1.3,6.45,0.0,0.0,0.0,0.0,0.0,0.0,3,Lying,4
2019-01-17,17:07:57,6.4500003,1.35,6.3399997,0.0,0.01,0.0,0.0,0.01,0.0,3,Lying,4
2019-01-17,17:07:57,6.4500003,1.35,6.3399997,0.0,0.01,0.0,0.0,0.01,0.0,3,Lying,4
2019-01-17,17:07:57,6.53,1.38,6.37,0.0,0.01,0.0,0.0,0.01,0.0,3,Lying,4
2019-01-17,17:07:57,6.53,1.38,6.37,0.0,0.01,0.0,0.0,0.01,0.0,3,Lying,4
2019-01-17,17:07:57,6.4700003,1.39,6.39,0.0,0.01,0.0,0.0,0.01,0.0,3,Lying,4
2019-01-17,17:07:57,6.4700003,1.39,6.39,0.0,0.02,0.0,0.0,0.02,0.0,3,Lying,4
2019-01-17,17:07:57,6.39,1.34,6.3099995,0.0,0.02,0.0,0.0,0.02,0.0,3,Lying,4
2019-01-17,17:07:57,6.39,1.34,6.3099995,0.0,0.02,0.0,0.0,0.02,0.0,3,Lying,4
2019-01-17,17:07:57,6.4,1.38,6.3599997,0.0,0.02,0.0,0.0,0.02,0.0,3,Lying,4
2019-01-17,17:07:57,6.4,1.38,6.3599997,0.0,0.01,0.0,0.0,0.01,0.0,3,Lying,4
2019-01-17,17:07:57,6.38,1.31,6.47,0.0,0.01,0.0,0.0,0.01,0.0,3,Lying,4
2019-01-17,17:07:57,6.38,1.31,6.47,0.0,-0.01,0.01,0.0,-0.01,0.01,3,Lying,4
2019-01-17,17:07:57,6.4,1.31,6.3599997,0.0,-0.01,0.01,0.0,-0.01,0.01,3,Lying,4
2019-01-17,17:07:57,6.4,1.31,6.3599997,0.0,-0.02,0.01,0.0,-0.02,0.01,3,Lying,4
2019-01-17,17:07:57,6.39,1.3299999,6.43,0.0,-0.02,0.01,0.0,-0.02,0.01,3,Lying,4
2019-01-17,17:07:57,6.39,1.3299999,6.43,0.0,0.0,0.0,0.0,0.0,0.0,3,Lying,4
2019-01-17,17:07:57,6.4900002,1.3299999,6.41,0.0,0.0,0.0,0.0,0.0,0.0,3,Lying,4
2019-01-17,17:07:57,6.4900002,1.3299999,6.41,0.0,-0.02,0.0,0.0,-0.02,0.0,3,Lying,4
2019-01-17,17:07:57,6.4900002,1.39,6.349999400000001,0.0,-0.02,0.0,0.0,-0.02,0.0,3,Lying,4
2019-01-17,17:07:57,6.4900002,1.39,6.349999400000001,0.0,0.0,0.0,0.0,0.0,0.0,3,Lying,4
2019-01-17,17:07:57,6.44,1.27,6.47,0.0,0.0,0.0,0.0,0.0,0.0,3,Lying,4
2019-01-17,17:07:57,6.44,1.27,6.47,0.0,0.0,0.01,0.0,0.0,0.01,3,Lying,4
2019-01-17,17:07:57,6.41,1.28,6.37,0.0,0.0,0.01,0.0,0.0,0.01,3,Lying,4
2019-01-17,17:07:57,6.41,1.28,6.37,0.0,0.0,0.0,0.0,0.0,0.0,3,Lying,4
2019-01-17,17:07:57,6.48,1.24,6.41,0.0,0.0,0.0,0.0,0.0,0.0,3,Lying,4
2019-01-17,17:07:57,6.48,1.24,6.41,0.0,-0.02,0.0,0.0,-0.02,0.0,3,Lying,4
2019-01-17,17:07:57,6.43,1.3199999,6.37,0.0,-0.02,0.0,0.0,-0.02,0.0,3,Lying,4
2019-01-17,17:07:57,6.43,1.3199999,6.37,0.0,-0.02,0.0,0.0,-0.02,0.0,3,Lying,4
2019-01-17,17:07:57,6.42,1.38,6.349999400000001,0.0,-0.02,0.0,0.0,-0.02,0.0,3,Lying,4
2019-01-17,17:07:57,6.42,1.38,6.349999400000001,0.0,0.02,0.0,0.0,0.02,0.0,3,Lying,4
2019-01-17,17:07:57,6.4500003,1.39,6.3999996,0.0,0.02,0.0,0.0,0.02,0.0,3,Lying,4
2019-01-17,17:07:58,6.4500003,1.39,6.3999996,0.0,0.02,0.01,0.0,0.02,0.01,3,Lying,4
2019-01-17,17:07:58,6.37,1.39,6.3999996,0.0,0.02,0.01,0.0,0.02,0.01,3,Lying,4
2019-01-17,17:07:58,6.37,1.39,6.3999996,0.0,0.0,0.0,0.0,0.0,0.0,3,Lying,4
2019-01-17,17:07:58,6.41,1.37,6.3799996,0.0,0.0,0.0,0.0,0.0,0.0,3,Lying,4
2019-01-17,17:07:58,6.41,1.37,6.3799996,0.0,-0.03,0.01,0.0,-0.03,0.01,3,Lying,4
2019-01-17,17:07:58,6.51,1.29,6.39,0.0,-0.03,0.01,0.0,-0.03,0.01,3,Lying,4
2019-01-17,17:07:58,6.51,1.29,6.39,0.0,-0.02,0.01,0.0,-0.02,0.01,3,Lying,4
2019-01-17,17:07:58,6.46,1.3,6.39,0.0,-0.02,0.01,0.0,-0.02,0.01,3,Lying,4
2019-01-17,17:07:58,6.46,1.3,6.39,0.0,-0.01,0.0,0.0,-0.01,0.0,3,Lying,4
2019-01-17,17:07:58,6.43,1.35,6.3599997,0.0,-0.01,0.0,0.0,-0.01,0.0,3,Lying,4
2019-01-17,17:07:58,6.43,1.35,6.3599997,0.0,0.0,0.0,0.0,0.0,0.0,3,Lying,4
2019-01-17,17:07:58,6.41,1.36,6.3399997,0.0,0.0,0.0,0.0,0.0,0.0,3,Lying,4
2019-01-17,17:07:58,6.41,1.36,6.3399997,0.0,0.0,0.0,0.0,0.0,0.0,3,Lying,4
2019-01-17,17:07:58,6.42,1.34,6.39,0.0,0.0,0.0,0.0,0.0,0.0,3,Lying,4
2019-01-17,17:07:58,6.42,1.34,6.39,0.0,-0.02,0.0,0.0,-0.02,0.0,3,Lying,4
2019-01-17,17:07:58,6.43,1.36,6.3799996,0.0,-0.02,0.0,0.0,-0.02,0.0,3,Lying,4
2019-01-17,17:07:58,6.43,1.36,6.3799996,0.0,-0.02,0.01,0.0,-0.02,0.01,3,Lying,4
2019-01-17,17:07:58,6.5,1.29,6.39,0.0,-0.02,0.01,0.0,-0.02,0.01,3,Lying,4
2019-01-17,17:07:58,6.5,1.29,6.39,0.0,0.0,0.01,0.0,0.0,0.01,3,Lying,4
2019-01-17,17:07:58,6.48,1.28,6.39,0.0,0.0,0.01,0.0,0.0,0.01,3,Lying,4
2019-01-17,17:07:58,6.48,1.28,6.39,0.0,0.0,0.0,0.0,0.0,0.0,3,Lying,4
2019-01-17,17:07:58,6.4500003,1.31,6.3599997,0.0,0.0,0.0,0.0,0.0,0.0,3,Lying,4
2019-01-17,17:07:58,6.4500003,1.31,6.3599997,0.0,0.0,0.0,0.0,0.0,0.0,3,Lying,4
2019-01-17,17:07:58,6.38,1.36,6.37,0.0,0.0,0.0,0.0,0.0,0.0,3,Lying,4
2019-01-17,17:07:58,6.38,1.36,6.37,0.01,0.0,0.0,0.01,0.0,0.0,3,Lying,4
2019-01-17,17:07:58,6.41,1.37,6.39,0.01,0.0,0.0,0.01,0.0,0.0,3,Lying,4
2019-01-17,17:07:58,6.41,1.37,6.39,0.0,-0.01,0.0,0.0,-0.01,0.0,3,Lying,4
2019-01-17,17:07:58,6.53,1.38,6.3199997,0.0,-0.01,0.0,0.0,-0.01,0.0,3,Lying,4
2019-01-17,17:07:58,6.53,1.38,6.3199997,0.0,-0.03,0.02,0.0,-0.03,0.02,3,Lying,4
2019-01-17,17:07:58,6.55,1.3,6.3299994,0.0,-0.03,0.02,0.0,-0.03,0.02,3,Lying,4
2019-01-17,17:07:58,6.55,1.3,6.3299994,0.0,-0.03,0.01,0.0,-0.03,0.01,3,Lying,4
2019-01-17,17:07:58,6.48,1.3,6.2899995,0.0,-0.03,0.01,0.0,-0.03,0.01,3,Lying,4
2019-01-17,17:07:58,6.48,1.3,6.2899995,0.0,0.0,0.0,0.0,0.0,0.0,3,Lying,4
2019-01-17,17:07:58,6.42,1.37,6.43,0.0,0.0,0.0,0.0,0.0,0.0,3,Lying,4
2019-01-17,17:07:58,6.42,1.37,6.43,0.0,0.01,0.0,0.0,0.01,0.0,3,Lying,4
2019-01-17,17:07:58,6.41,1.3299999,6.3999996,0.0,0.01,0.0,0.0,0.01,0.0,3,Lying,4
2019-01-17,17:07:58,6.41,1.3299999,6.3999996,0.0,0.0,0.0,0.0,0.0,0.0,3,Lying,4
2019-01-17,17:07:58,6.51,1.37,6.37,0.0,0.0,0.0,0.0,0.0,0.0,3,Lying,4
2019-01-17,17:07:58,6.51,1.37,6.37,0.0,0.0,0.01,0.0,0.0,0.01,3,Lying,4
2019-01-17,17:07:58,6.4900002,1.3299999,6.41,0.0,0.0,0.01,0.0,0.0,0.01,3,Lying,4
2019-01-17,17:07:58,6.4900002,1.3299999,6.41,0.0,0.0,0.01,0.0,0.0,0.01,3,Lying,4
2019-01-17,17:07:58,6.53,1.34,6.3599997,0.0,0.0,0.01,0.0,0.0,0.01,3,Lying,4
2019-01-17,17:07:58,6.53,1.34,6.3599997,0.0,-0.01,0.01,0.0,-0.01,0.01,3,Lying,4
2019-01-17,17:07:58,6.52,1.31,6.3599997,0.0,-0.01,0.01,0.0,-0.01,0.01,3,Lying,4
2019-01-17,17:07:58,6.52,1.31,6.3599997,0.0,0.0,0.01,0.0,0.0,0.01,3,Lying,4
2019-01-17,17:07:58,6.53,1.39,6.37,0.0,0.0,0.01,0.0,0.0,0.01,3,Lying,4
2019-01-17,17:07:58,6.53,1.39,6.37,0.0,0.03,0.0,0.0,0.03,0.0,3,Lying,4
2019-01-17,17:07:59,6.4,1.34,6.4399996,0.0,0.03,0.0,0.0,0.03,0.0,3,Lying,4
2019-01-17,17:07:59,6.4,1.34,6.4399996,0.0,0.06,0.0,0.0,0.06,0.0,3,Lying,4
2019-01-17,17:07:59,6.34,1.24,6.39,0.0,0.06,0.0,0.0,0.06,0.0,3,Lying,4
2019-01-17,17:07:59,6.34,1.24,6.39,0.0,0.049999997000000004,0.0,0.0,0.049999997000000004,0.0,3,Lying,4
2019-01-17,17:07:59,6.39,1.34,6.45,0.0,0.0,0.0,0.0,0.0,0.0,3,Lying,4
2019-01-17,17:07:59,6.39,1.34,6.45,0.0,0.0,0.0,0.0,0.0,0.0,3,Lying,4
2019-01-17,17:07:59,6.44,1.39,6.4199996,0.0,0.0,0.0,0.0,0.0,0.0,3,Lying,4
2019-01-17,17:07:59,6.44,1.39,6.4199996,0.0,0.0,0.01,0.0,0.0,0.01,3,Lying,4
2019-01-17,17:07:59,6.4700003,1.34,6.4399996,0.0,0.0,0.01,0.0,0.0,0.01,3,Lying,4
2019-01-17,17:07:59,6.4700003,1.34,6.4399996,0.0,0.0,0.02,0.0,0.0,0.02,3,Lying,4
2019-01-17,17:07:59,6.41,1.34,6.43,0.0,0.0,0.02,0.0,0.0,0.02,3,Lying,4
2019-01-17,17:07:59,6.41,1.34,6.43,0.0,0.0,0.01,0.0,0.0,0.01,3,Lying,4
2019-01-17,17:07:59,6.42,1.24,6.4199996,0.0,0.0,0.01,0.0,0.0,0.01,3,Lying,4
2019-01-17,17:07:59,6.42,1.24,6.4199996,0.0,0.0,0.0,0.0,0.0,0.0,3,Lying,4
2019-01-17,17:07:59,6.33,1.31,6.43,0.0,0.0,0.0,0.0,0.0,0.0,3,Lying,4
2019-01-17,17:07:59,6.33,1.31,6.43,0.0,0.01,0.0,0.0,0.01,0.0,3,Lying,4
2019-01-17,17:07:59,6.39,1.31,6.4999995,0.0,0.01,0.0,0.0,0.01,0.0,3,Lying,4
2019-01-17,17:07:59,6.39,1.31,6.4999995,0.0,0.0,0.0,0.0,0.0,0.0,3,Lying,4
2019-01-17,17:07:59,6.39,1.35,6.4199996,0.0,0.0,0.0,0.0,0.0,0.0,3,Lying,4
2019-01-17,17:07:59,6.39,1.35,6.4199996,0.0,0.0,0.01,0.0,0.0,0.01,3,Lying,4
2019-01-17,17:07:59,6.4500003,1.3199999,6.45,0.0,0.0,0.01,0.0,0.0,0.01,3,Lying,4
2019-01-17,17:07:59,6.4500003,1.3199999,6.45,0.0,-0.01,0.01,0.0,-0.01,0.01,3,Lying,4
2019-01-17,17:07:59,6.44,1.29,6.4399996,0.0,-0.01,0.01,0.0,-0.01,0.01,3,Lying,4
2019-01-17,17:07:59,6.44,1.29,6.4399996,0.0,-0.02,0.01,0.0,-0.02,0.01,3,Lying,4
2019-01-17,17:07:59,6.4500003,1.3299999,6.43,0.0,-0.02,0.01,0.0,-0.02,0.01,3,Lying,4
2019-01-17,17:07:59,6.4500003,1.3299999,6.43,0.0,-0.02,0.0,0.0,-0.02,0.0,3,Lying,4
2019-01-17,17:07:59,6.42,1.3299999,6.4799995,0.0,-0.02,0.0,0.0,-0.02,0.0,3,Lying,4
2019-01-17,17:07:59,6.42,1.3299999,6.4799995,0.0,0.0,0.0,0.0,0.0,0.0,3,Lying,4
2019-01-17,17:07:59,6.39,1.34,6.4599996,0.0,0.0,0.0,0.0,0.0,0.0,3,Lying,4
2019-01-17,17:07:59,6.39,1.34,6.4599996,0.0,0.02,0.0,0.0,0.02,0.0,3,Lying,4
2019-01-17,17:07:59,6.34,1.24,6.5099998,0.0,0.02,0.0,0.0,0.02,0.0,3,Lying,4
2019-01-17,17:07:59,6.34,1.24,6.5099998,0.0,0.0,0.0,0.0,0.0,0.0,3,Lying,4
2019-01-17,17:07:59,6.39,1.34,6.43,0.0,0.0,0.0,0.0,0.0,0.0,3,Lying,4
2019-01-17,17:07:59,6.39,1.34,6.43,0.0,-0.03,0.0,0.0,-0.03,0.0,3,Lying,4
2019-01-17,17:07:59,6.41,1.34,6.3999996,0.0,-0.03,0.0,0.0,-0.03,0.0,3,Lying,4
2019-01-17,17:07:59,6.41,1.34,6.3999996,0.0,-0.02,0.01,0.0,-0.02,0.01,3,Lying,4
2019-01-17,17:07:59,6.4700003,1.39,6.43,0.0,-0.02,0.01,0.0,-0.02,0.01,3,Lying,4
2019-01-17,17:07:59,6.4700003,1.39,6.43,0.0,-0.01,0.01,0.0,-0.01,0.01,3,Lying,4
2019-01-17,17:07:59,6.4500003,1.3199999,6.3999996,0.0,-0.01,0.01,0.0,-0.01,0.01,3,Lying,4
2019-01-17,17:07:59,6.4500003,1.3199999,6.3999996,0.0,0.0,0.0,0.0,0.0,0.0,3,Lying,4
2019-01-17,17:07:59,6.38,1.3199999,6.3999996,0.0,0.0,0.0,0.0,0.0,0.0,3,Lying,4
2019-01-17,17:07:59,6.38,1.3199999,6.3999996,0.01,0.0,0.0,0.01,0.0,0.0,3,Lying,4
2019-01-17,17:07:59,6.39,1.26,6.4399996,0.01,0.0,0.0,0.01,0.0,0.0,3,Lying,4
2019-01-17,17:07:59,6.39,1.26,6.4399996,0.0,0.0,0.0,0.0,0.0,0.0,3,Lying,4
2019-01-17,17:07:59,6.4,1.28,6.4399996,0.0,0.0,0.0,0.0,0.0,0.0,3,Lying,4
2019-01-17,17:07:59,6.4,1.28,6.4399996,0.0,0.0,0.0,0.0,0.0,0.0,3,Lying,4
2019-01-17,17:07:59,6.46,1.29,6.45,0.0,0.0,0.0,0.0,0.0,0.0,3,Lying,4
2019-01-17,17:08:00,6.46,1.29,6.45,0.0,0.0,0.0,0.0,0.0,0.0,3,Lying,4
2019-01-17,17:08:00,6.43,1.37,6.4199996,0.0,0.0,0.0,0.0,0.0,0.0,3,Lying,4
2019-01-17,17:08:00,6.43,1.37,6.4199996,0.0,0.0,0.0,0.0,0.0,0.0,3,Lying,4
2019-01-17,17:08:00,6.39,1.3199999,6.4199996,0.0,0.0,0.0,0.0,0.0,0.0,3,Lying,4
2019-01-17,17:08:00,6.39,1.3199999,6.4199996,0.0,-0.01,0.0,0.0,-0.01,0.0,3,Lying,4
2019-01-17,17:08:00,6.38,1.3199999,6.3599997,0.0,-0.01,0.0,0.0,-0.01,0.0,3,Lying,4
2019-01-17,17:08:00,6.38,1.3199999,6.3599997,0.0,-0.01,0.0,0.0,-0.01,0.0,3,Lying,4
2019-01-17,17:08:00,6.44,1.3,6.4399996,0.0,-0.01,0.0,0.0,-0.01,0.0,3,Lying,4
2019-01-17,17:08:00,6.44,1.3,6.4399996,0.0,-0.01,0.0,0.0,-0.01,0.0,3,Lying,4
2019-01-17,17:08:00,6.43,1.3299999,6.4799995,0.0,-0.01,0.0,0.0,-0.01,0.0,3,Lying,4
2019-01-17,17:08:00,6.43,1.3299999,6.4799995,0.0,0.0,0.01,0.0,0.0,0.01,3,Lying,4
2019-01-17,17:08:00,6.43,1.3199999,6.4199996,0.0,0.0,0.01,0.0,0.0,0.01,3,Lying,4
2019-01-17,17:08:00,6.43,1.3199999,6.4199996,0.0,0.0,0.0,0.0,0.0,0.0,3,Lying,4
2019-01-17,17:08:00,6.38,1.21,6.43,0.0,0.0,0.0,0.0,0.0,0.0,3,Lying,4
2019-01-17,17:08:00,6.38,1.21,6.43,0.0,-0.01,0.0,0.0,-0.01,0.0,3,Lying,4
2019-01-17,17:08:00,6.41,1.35,6.37,0.0,-0.01,0.0,0.0,-0.01,0.0,3,Lying,4
2019-01-17,17:08:00,6.41,1.35,6.37,0.01,-0.01,0.0,0.01,-0.01,0.0,3,Lying,4
2019-01-17,17:08:00,6.39,1.31,6.45,0.01,-0.01,0.0,0.01,-0.01,0.0,3,Lying,4
2019-01-17,17:08:00,6.39,1.31,6.45,0.0,0.0,0.0,0.0,0.0,0.0,3,Lying,4
2019-01-17,17:08:00,6.48,1.3199999,6.4199996,0.0,0.0,0.0,0.0,0.0,0.0,3,Lying,4
2019-01-17,17:08:00,6.48,1.3199999,6.4199996,0.0,-0.02,0.01,0.0,-0.02,0.01,3,Lying,4
2019-01-17,17:08:00,6.43,1.31,6.3799996,0.0,-0.01,0.0,0.0,-0.01,0.0,3,Lying,4
2019-01-17,17:08:00,6.43,1.31,6.3799996,0.0,-0.01,0.0,0.0,-0.01,0.0,3,Lying,4
2019-01-17,17:08:00,6.37,1.3,6.3999996,0.0,-0.01,0.0,0.0,-0.01,0.0,3,Lying,4
2019-01-17,17:08:00,6.37,1.3,6.3999996,0.0,0.0,0.0,0.0,0.0,0.0,3,Lying,4
2019-01-17,17:08:00,6.36,1.25,6.4199996,0.0,0.0,0.0,0.0,0.0,0.0,3,Lying,4
2019-01-17,17:08:00,6.36,1.25,6.4199996,0.0,-0.01,0.0,0.0,-0.01,0.0,3,Lying,4
2019-01-17,17:08:00,6.4700003,1.25,6.45,0.0,-0.01,0.0,0.0,-0.01,0.0,3,Lying,4
2019-01-17,17:08:00,6.4700003,1.25,6.45,0.0,-0.01,0.01,0.0,-0.01,0.01,3,Lying,4
2019-01-17,17:08:00,6.48,1.31,6.3999996,0.0,-0.01,0.01,0.0,-0.01,0.01,3,Lying,4
2019-01-17,17:08:00,6.48,1.31,6.3999996,0.0,0.0,0.0,0.0,0.0,0.0,3,Lying,4
2019-01-17,17:08:00,6.42,1.3,6.39,0.0,0.0,0.0,0.0,0.0,0.0,3,Lying,4
2019-01-17,17:08:00,6.42,1.3,6.39,0.0,0.0,0.0,0.0,0.0,0.0,3,Lying,4
2019-01-17,17:08:00,6.4,1.31,6.3799996,0.0,0.0,0.0,0.0,0.0,0.0,3,Lying,4
2019-01-17,17:08:00,6.4,1.31,6.3799996,0.0,-0.01,0.0,0.0,-0.01,0.0,3,Lying,4
2019-01-17,17:08:00,6.46,1.34,6.4599996,0.0,-0.01,0.0,0.0,-0.01,0.0,3,Lying,4
2019-01-17,17:08:00,6.46,1.34,6.4599996,0.0,-0.02,0.0,0.0,-0.02,0.0,3,Lying,4
2019-01-17,17:08:00,6.4500003,1.28,6.45,0.0,-0.02,0.0,0.0,-0.02,0.0,3,Lying,4
2019-01-17,17:08:00,6.4500003,1.28,6.45,0.0,-0.01,0.0,0.0,-0.01,0.0,3,Lying,4
2019-01-17,17:08:00,6.43,1.31,6.39,0.0,-0.01,0.0,0.0,-0.01,0.0,3,Lying,4
2019-01-17,17:08:00,6.43,1.31,6.39,0.0,0.0,0.0,0.0,0.0,0.0,3,Lying,4
2019-01-17,17:08:00,6.4500003,1.3,6.41,0.0,0.0,0.0,0.0,0.0,0.0,3,Lying,4
2019-01-17,17:08:00,6.4500003,1.3,6.41,0.0,0.01,0.0,0.0,0.01,0.0,3,Lying,4
2019-01-17,17:08:00,6.4500003,1.29,6.41,0.0,0.01,0.0,0.0,0.01,0.0,3,Lying,4
2019-01-17,17:08:00,6.4500003,1.29,6.41,0.0,0.0,0.0,0.0,0.0,0.0,3,Lying,4
2019-01-17,17:08:00,6.46,1.31,6.45,0.0,0.0,0.0,0.0,0.0,0.0,3,Lying,4
2019-01-17,17:08:00,6.46,1.31,6.45,0.0,-0.01,0.0,0.0,-0.01,0.0,3,Lying,4
2019-01-17,17:08:01,6.44,1.35,6.3599997,0.0,-0.01,0.0,0.0,-0.01,0.0,3,Lying,4
2019-01-17,17:08:01,6.44,1.35,6.3599997,0.0,0.0,0.0,0.0,0.0,0.0,3,Lying,4
2019-01-17,17:08:01,6.4700003,1.36,6.4399996,0.0,0.0,0.0,0.0,0.0,0.0,3,Lying,4
2019-01-17,17:08:01,6.4700003,1.36,6.4399996,0.0,0.0,0.01,0.0,0.0,0.01,3,Lying,4
2019-01-17,17:08:01,6.4700003,1.34,6.3599997,0.0,0.0,0.01,0.0,0.0,0.01,3,Lying,4
2019-01-17,17:08:01,6.4700003,1.34,6.3599997,0.0,-0.01,0.01,0.0,-0.01,0.01,3,Lying,4
2019-01-17,17:08:01,6.4,1.3,6.3799996,0.0,-0.01,0.0,0.0,-0.01,0.0,3,Lying,4
2019-01-17,17:08:01,6.4,1.3,6.3799996,0.0,-0.01,0.0,0.0,-0.01,0.0,3,Lying,4
2019-01-17,17:08:01,6.38,1.27,6.39,0.0,-0.01,0.0,0.0,-0.01,0.0,3,Lying,4
2019-01-17,17:08:01,6.38,1.27,6.39,0.0,0.0,0.0,0.0,0.0,0.0,3,Lying,4
2019-01-17,17:08:01,6.43,1.3199999,6.3999996,0.0,0.0,0.0,0.0,0.0,0.0,3,Lying,4
2019-01-17,17:08:01,6.43,1.3199999,6.3999996,0.0,0.0,0.0,0.0,0.0,0.0,3,Lying,4
2019-01-17,17:08:01,6.53,1.3199999,6.4399996,0.0,0.0,0.0,0.0,0.0,0.0,3,Lying,4
2019-01-17,17:08:01,6.53,1.3199999,6.4399996,0.0,-0.01,0.01,0.0,-0.01,0.01,3,Lying,4
2019-01-17,17:08:01,6.4700003,1.35,6.39,0.0,-0.01,0.01,0.0,-0.01,0.01,3,Lying,4
2019-01-17,17:08:01,6.4700003,1.35,6.39,0.0,0.0,0.01,0.0,0.0,0.01,3,Lying,4
2019-01-17,17:08:01,6.4900002,1.27,6.45,0.0,0.0,0.01,0.0,0.0,0.01,3,Lying,4
2019-01-17,17:08:01,6.4900002,1.27,6.45,0.0,0.0,0.01,0.0,0.0,0.01,3,Lying,4
2019-01-17,17:08:01,6.4,1.29,6.3799996,0.0,0.0,0.01,0.0,0.0,0.01,3,Lying,4
2019-01-17,17:08:01,6.4,1.29,6.3799996,0.0,0.0,0.0,0.0,0.0,0.0,3,Lying,4
2019-01-17,17:08:01,6.43,1.27,6.45,0.0,0.0,0.0,0.0,0.0,0.0,3,Lying,4
2019-01-17,17:08:01,6.43,1.27,6.45,0.0,0.0,0.0,0.0,0.0,0.0,3,Lying,4
2019-01-17,17:08:01,6.48,1.28,6.4399996,0.0,0.0,0.0,0.0,0.0,0.0,3,Lying,4
2019-01-17,17:08:01,6.48,1.28,6.4399996,0.0,0.01,0.01,0.0,0.01,0.01,3,Lying,4
2019-01-17,17:08:01,6.4,1.3199999,6.47,0.0,0.01,0.01,0.0,0.01,0.01,3,Lying,4
2019-01-17,17:08:01,6.4,1.3199999,6.47,0.0,0.03,0.0,0.0,0.03,0.0,3,Lying,4
2019-01-17,17:08:01,6.42,1.3299999,6.4399996,0.0,0.03,0.0,0.0,0.03,0.0,3,Lying,4
2019-01-17,17:08:01,6.42,1.3299999,6.4399996,0.0,0.03,0.0,0.0,0.03,0.0,3,Lying,4
2019-01-17,17:08:01,6.4,1.26,6.47,0.0,0.0,0.01,0.0,0.0,0.01,3,Lying,4
2019-01-17,17:08:01,6.4,1.26,6.47,0.0,0.0,0.01,0.0,0.0,0.01,3,Lying,4
2019-01-17,17:08:01,6.41,1.3,6.4399996,0.0,0.0,0.01,0.0,0.0,0.01,3,Lying,4
2019-01-17,17:08:01,6.41,1.3,6.4399996,0.0,0.01,0.0,0.0,0.01,0.0,3,Lying,4
2019-01-17,17:08:01,6.41,1.31,6.4599996,0.0,0.01,0.0,0.0,0.01,0.0,3,Lying,4
2019-01-17,17:08:01,6.41,1.31,6.4599996,0.0,0.02,0.01,0.0,0.02,0.01,3,Lying,4
2019-01-17,17:08:01,6.37,1.29,6.4799995,0.0,0.02,0.01,0.0,0.02,0.01,3,Lying,4
2019-01-17,17:08:01,6.37,1.29,6.4799995,0.0,0.02,0.0,0.0,0.02,0.0,3,Lying,4
2019-01-17,17:08:01,6.41,1.26,6.4599996,0.0,0.02,0.0,0.0,0.02,0.0,3,Lying,4
2019-01-17,17:08:01,6.41,1.26,6.4599996,0.0,0.03,0.0,0.0,0.03,0.0,3,Lying,4
2019-01-17,17:08:01,6.34,1.28,6.4799995,0.0,0.03,0.0,0.0,0.03,0.0,3,Lying,4
2019-01-17,17:08:01,6.34,1.28,6.4799995,0.0,0.049999997000000004,0.0,0.0,0.049999997000000004,0.0,3,Lying,4
2019-01-17,17:08:01,6.21,1.3,6.5199995,0.0,0.049999997000000004,0.0,0.0,0.049999997000000004,0.0,3,Lying,4
2019-01-17,17:08:01,6.21,1.3,6.5199995,0.0,0.049999997000000004,0.0,0.0,0.049999997000000004,0.0,3,Lying,4
2019-01-17,17:08:01,6.3,1.3299999,6.5399995,0.0,0.049999997000000004,0.0,0.0,0.049999997000000004,0.0,3,Lying,4
2019-01-17,17:08:01,6.3,1.3299999,6.5399995,-0.01,0.02,0.02,-0.01,0.02,0.02,3,Lying,4
2019-01-17,17:08:01,6.36,1.25,6.5399995,-0.01,0.02,0.02,-0.01,0.02,0.02,3,Lying,4
2019-01-17,17:08:01,6.36,1.25,6.5399995,-0.01,0.0,0.02,-0.01,0.0,0.02,3,Lying,4
2019-01-17,17:08:01,6.35,1.1899998999999999,6.5099998,-0.01,0.0,0.02,-0.01,0.0,0.02,3,Lying,4
2019-01-17,17:08:02,6.35,1.1899998999999999,6.5099998,-0.01,0.0,0.01,-0.01,0.0,0.01,3,Lying,4
2019-01-17,17:08:02,6.41,1.1899998999999999,6.5099998,-0.01,0.0,0.01,-0.01,0.0,0.01,3,Lying,4
2019-01-17,17:08:02,6.41,1.1899998999999999,6.5099998,-0.01,0.0,0.0,-0.01,0.0,0.0,3,Lying,4
2019-01-17,17:08:02,6.35,1.1899998999999999,6.47,-0.01,0.0,0.0,-0.01,0.0,0.0,3,Lying,4
2019-01-17,17:08:02,6.35,1.1899998999999999,6.47,0.0,0.02,-0.01,0.0,0.02,-0.01,3,Lying,4
2019-01-17,17:08:02,6.31,1.24,6.5299997,0.0,0.02,-0.01,0.0,0.02,-0.01,3,Lying,4
2019-01-17,17:08:02,6.31,1.24,6.5299997,0.01,0.049999997000000004,-0.02,0.01,0.049999997000000004,-0.02,3,Lying,4
2019-01-17,17:08:02,6.1800003,1.31,6.5899997,0.01,0.049999997000000004,-0.02,0.01,0.049999997000000004,-0.02,3,Lying,4
2019-01-17,17:08:02,6.1800003,1.31,6.5899997,0.0,0.06,-0.01,0.0,0.06,-0.01,3,Lying,4
2019-01-17,17:08:02,6.31,1.26,6.5699997,0.0,0.06,-0.01,0.0,0.06,-0.01,3,Lying,4
2019-01-17,17:08:02,6.31,1.26,6.5699997,0.0,0.04,0.02,0.0,0.04,0.02,3,Lying,4
2019-01-17,17:08:02,6.26,1.1899998999999999,6.759999799999999,0.0,0.04,0.02,0.0,0.04,0.02,3,Lying,4
2019-01-17,17:08:02,6.26,1.1899998999999999,6.759999799999999,-0.01,0.01,0.0,-0.01,0.01,0.0,3,Lying,4
2019-01-17,17:08:02,6.23,1.1999999,6.64,-0.01,0.01,0.0,-0.01,0.01,0.0,3,Lying,4
2019-01-17,17:08:02,6.23,1.1999999,6.64,0.0,0.01,0.0,0.0,0.01,0.0,3,Lying,4
2019-01-17,17:08:02,6.17,1.27,6.5799994,0.0,0.01,0.0,0.0,0.01,0.0,3,Lying,4
2019-01-17,17:08:02,6.17,1.27,6.5799994,0.0,0.01,-0.01,0.0,0.01,-0.01,3,Lying,4
2019-01-17,17:08:02,6.23,1.29,6.559999499999999,0.0,0.01,-0.01,0.0,0.01,-0.01,3,Lying,4
2019-01-17,17:08:02,6.23,1.29,6.559999499999999,0.0,0.01,0.0,0.0,0.01,0.0,3,Lying,4
2019-01-17,17:08:02,6.23,1.29,6.6299996,0.0,0.01,0.0,0.0,0.01,0.0,3,Lying,4
2019-01-17,17:08:02,6.23,1.29,6.6299996,0.0,0.0,0.0,0.0,0.0,0.0,3,Lying,4
2019-01-17,17:08:02,6.2000003,1.27,6.5899997,0.0,0.0,0.0,0.0,0.0,0.0,3,Lying,4
2019-01-17,17:08:02,6.2000003,1.27,6.5899997,0.0,0.0,0.0,0.0,0.0,0.0,3,Lying,4
2019-01-17,17:08:02,6.17,1.24,6.5799994,0.0,0.0,0.0,0.0,0.0,0.0,3,Lying,4
2019-01-17,17:08:02,6.17,1.24,6.5799994,0.0,0.0,0.0,0.0,0.0,0.0,3,Lying,4
2019-01-17,17:08:02,6.2000003,1.27,6.599999400000001,0.0,0.0,0.0,0.0,0.0,0.0,3,Lying,4
2019-01-17,17:08:02,6.2000003,1.27,6.599999400000001,0.0,-0.01,0.0,0.0,-0.01,0.0,3,Lying,4
2019-01-17,17:08:02,6.21,1.1999999,6.599999400000001,0.0,-0.01,0.0,0.0,-0.01,0.0,3,Lying,4
2019-01-17,17:08:02,6.21,1.1999999,6.599999400000001,0.0,-0.04,0.01,0.0,-0.04,0.01,3,Lying,4
2019-01-17,17:08:02,6.26,1.28,6.5799994,0.0,-0.04,0.01,0.0,-0.04,0.01,3,Lying,4
2019-01-17,17:08:02,6.26,1.28,6.5799994,0.0,-0.04,0.01,0.0,-0.04,0.01,3,Lying,4
2019-01-17,17:08:02,6.26,1.1999999,6.559999499999999,0.0,-0.04,0.01,0.0,-0.04,0.01,3,Lying,4
2019-01-17,17:08:02,6.26,1.1999999,6.559999499999999,0.0,-0.04,0.0,0.0,-0.04,0.0,3,Lying,4
2019-01-17,17:08:02,6.26,1.25,6.6499996,0.0,-0.04,0.0,0.0,-0.04,0.0,3,Lying,4
2019-01-17,17:08:02,6.26,1.25,6.6499996,0.01,-0.03,0.0,0.01,-0.03,0.0,3,Lying,4
2019-01-17,17:08:02,6.3,1.24,6.64,0.01,-0.03,0.0,0.01,-0.03,0.0,3,Lying,4
2019-01-17,17:08:02,6.3,1.24,6.64,0.0,-0.02,0.0,0.0,-0.02,0.0,3,Lying,4
2019-01-17,17:08:02,6.27,1.27,6.5199995,0.0,-0.02,0.0,0.0,-0.02,0.0,3,Lying,4
2019-01-17,17:08:02,6.27,1.27,6.5199995,0.01,0.0,0.0,0.01,0.0,0.0,3,Lying,4
2019-01-17,17:08:02,6.25,1.3299999,6.559999499999999,0.01,0.0,0.0,0.01,0.0,0.0,3,Lying,4
2019-01-17,17:08:02,6.25,1.3299999,6.559999499999999,0.0,-0.02,0.0,0.0,-0.02,0.0,3,Lying,4
2019-01-17,17:08:02,6.2200003,1.25,6.5399995,0.0,-0.02,0.0,0.0,-0.02,0.0,3,Lying,4
2019-01-17,17:08:02,6.2200003,1.25,6.5399995,0.0,-0.04,0.01,0.0,-0.04,0.01,3,Lying,4
2019-01-17,17:08:02,6.28,1.18,6.5299997,0.0,-0.04,0.01,0.0,-0.04,0.01,3,Lying,4
2019-01-17,17:08:02,6.28,1.18,6.5299997,0.0,-0.06,0.0,0.0,-0.06,0.0,3,Lying,4
2019-01-17,17:08:02,6.34,1.31,6.559999499999999,0.0,-0.06,0.0,0.0,-0.06,0.0,3,Lying,4
2019-01-17,17:08:02,6.34,1.31,6.559999499999999,0.01,-0.049999997000000004,0.0,0.01,-0.049999997000000004,0.0,3,Lying,4
2019-01-17,17:08:02,6.41,1.3,6.5299997,0.01,-0.049999997000000004,0.0,0.01,-0.049999997000000004,0.0,3,Lying,4
2019-01-17,17:08:02,6.41,1.3,6.5299997,0.0,-0.04,0.02,0.0,-0.04,0.02,3,Lying,4
2019-01-17,17:08:03,6.34,1.29,6.4999995,0.0,-0.04,0.02,0.0,-0.04,0.02,3,Lying,4
2019-01-17,17:08:03,6.34,1.29,6.4999995,0.0,-0.03,0.02,0.0,-0.03,0.02,3,Lying,4
2019-01-17,17:08:03,6.4,1.23,6.4999995,0.0,-0.03,0.02,0.0,-0.03,0.02,3,Lying,4
2019-01-17,17:08:03,6.4,1.23,6.4999995,0.0,-0.03,0.01,0.0,-0.03,0.01,3,Lying,4
2019-01-17,17:08:03,6.41,1.25,6.5399995,0.0,-0.03,0.01,0.0,-0.03,0.01,3,Lying,4
2019-01-17,17:08:03,6.41,1.25,6.5399995,0.0,-0.02,0.0,0.0,-0.02,0.0,3,Lying,4
2019-01-17,17:08:03,6.38,1.21,6.4599996,0.0,-0.02,0.0,0.0,-0.02,0.0,3,Lying,4
2019-01-17,17:08:03,6.38,1.21,6.4599996,0.0,-0.01,0.0,0.0,-0.01,0.0,3,Lying,4
2019-01-17,17:08:03,6.35,1.28,6.4799995,0.0,-0.01,0.0,0.0,-0.01,0.0,3,Lying,4
2019-01-17,17:08:03,6.35,1.28,6.4799995,0.0,0.0,0.0,0.0,0.0,0.0,3,Lying,4
2019-01-17,17:08:03,6.39,1.25,6.5499997,0.0,0.0,0.0,0.0,0.0,0.0,3,Lying,4
2019-01-17,17:08:03,6.39,1.25,6.5499997,0.0,-0.02,0.01,0.0,-0.02,0.01,3,Lying,4
2019-01-17,17:08:03,6.44,1.3,6.47,0.0,-0.02,0.01,0.0,-0.02,0.01,3,Lying,4
2019-01-17,17:08:03,6.44,1.3,6.47,0.0,-0.02,0.0,0.0,-0.02,0.0,3,Lying,4
2019-01-17,17:08:03,6.41,1.23,6.5299997,0.0,-0.02,0.0,0.0,-0.02,0.0,3,Lying,4
2019-01-17,17:08:03,6.41,1.23,6.5299997,0.0,-0.02,0.0,0.0,-0.02,0.0,3,Lying,4
2019-01-17,17:08:03,6.37,1.26,6.4799995,0.0,-0.02,0.0,0.0,-0.02,0.0,3,Lying,4
2019-01-17,17:08:03,6.37,1.26,6.4799995,0.0,-0.01,0.0,0.0,-0.01,0.0,3,Lying,4
2019-01-17,17:08:03,6.31,1.28,6.4799995,0.0,-0.01,0.0,0.0,-0.01,0.0,3,Lying,4
2019-01-17,17:08:03,6.31,1.28,6.4799995,0.0,0.0,0.0,0.0,0.0,0.0,3,Lying,4
2019-01-17,17:08:03,6.37,1.3199999,6.4799995,0.0,0.0,0.0,0.0,0.0,0.0,3,Lying,4
2019-01-17,17:08:03,6.37,1.3199999,6.4799995,0.0,-0.02,0.0,0.0,-0.02,0.0,3,Lying,4
2019-01-17,17:08:03,6.4500003,1.22,6.4799995,0.0,-0.02,0.0,0.0,-0.02,0.0,3,Lying,4
2019-01-17,17:08:03,6.4500003,1.22,6.4799995,0.0,-0.02,0.01,0.0,-0.02,0.01,3,Lying,4
2019-01-17,17:08:03,6.43,1.35,6.3999996,0.0,-0.02,0.01,0.0,-0.02,0.01,3,Lying,4
2019-01-17,17:08:03,6.43,1.35,6.3999996,0.0,-0.01,0.01,0.0,-0.01,0.01,3,Lying,4
2019-01-17,17:08:03,6.41,1.3,6.4799995,0.0,-0.01,0.01,0.0,-0.01,0.01,3,Lying,4
2019-01-17,17:08:03,6.41,1.3,6.4799995,0.0,-0.01,0.01,0.0,-0.01,0.01,3,Lying,4
2019-01-17,17:08:03,6.39,1.1999999,6.4399996,0.0,-0.01,0.01,0.0,-0.01,0.01,3,Lying,4
2019-01-17,17:08:03,6.39,1.1999999,6.4399996,0.0,-0.01,0.0,0.0,-0.01,0.0,3,Lying,4
2019-01-17,17:08:03,6.38,1.23,6.37,0.0,-0.01,0.0,0.0,-0.01,0.0,3,Lying,4
2019-01-17,17:08:03,6.38,1.23,6.37,0.01,-0.02,0.0,0.01,-0.02,0.0,3,Lying,4
2019-01-17,17:08:03,6.38,1.25,6.47,0.01,-0.02,0.0,0.01,-0.02,0.0,3,Lying,4
2019-01-17,17:08:03,6.38,1.25,6.47,0.0,-0.01,0.0,0.0,-0.01,0.0,3,Lying,4
2019-01-17,17:08:03,6.44,1.26,6.4599996,0.0,-0.01,0.0,0.0,-0.01,0.0,3,Lying,4
2019-01-17,17:08:03,6.44,1.26,6.4599996,0.0,-0.01,0.01,0.0,-0.01,0.01,3,Lying,4
2019-01-17,17:08:03,6.39,1.29,6.45,0.0,-0.01,0.01,0.0,-0.01,0.01,3,Lying,4
2019-01-17,17:08:03,6.39,1.29,6.45,0.0,-0.02,0.0,0.0,-0.02,0.0,3,Lying,4
2019-01-17,17:08:03,6.4900002,1.3199999,6.45,0.0,-0.03,0.0,0.0,-0.03,0.0,3,Lying,4
2019-01-17,17:08:03,6.4900002,1.3199999,6.45,0.0,-0.03,0.0,0.0,-0.03,0.0,3,Lying,4
2019-01-17,17:08:03,6.4500003,1.22,6.4399996,0.0,-0.03,0.0,0.0,-0.03,0.0,3,Lying,4
2019-01-17,17:08:03,6.4500003,1.22,6.4399996,0.0,-0.01,0.0,0.0,-0.01,0.0,3,Lying,4
2019-01-17,17:08:03,6.39,1.28,6.43,0.0,-0.01,0.0,0.0,-0.01,0.0,3,Lying,4
2019-01-17,17:08:03,6.39,1.28,6.43,0.0,0.0,0.0,0.0,0.0,0.0,3,Lying,4
2019-01-17,17:08:03,6.5,1.31,6.4399996,0.0,0.0,0.0,0.0,0.0,0.0,3,Lying,4
2019-01-17,17:08:03,6.5,1.31,6.4399996,0.0,-0.01,0.01,0.0,-0.01,0.01,3,Lying,4
2019-01-17,17:08:03,6.43,1.28,6.45,0.0,-0.01,0.01,0.0,-0.01,0.01,3,Lying,4
2019-01-17,17:08:04,6.43,1.28,6.45,0.0,0.0,0.0,0.0,0.0,0.0,3,Lying,4
2019-01-17,17:08:04,6.43,1.27,6.41,0.0,0.0,0.0,0.0,0.0,0.0,3,Lying,4
2019-01-17,17:08:04,6.43,1.27,6.41,0.0,-0.01,0.0,0.0,-0.01,0.0,3,Lying,4
2019-01-17,17:08:04,6.4700003,1.25,6.37,0.0,-0.01,0.0,0.0,-0.01,0.0,3,Lying,4
2019-01-17,17:08:04,6.4700003,1.25,6.37,0.0,-0.01,0.0,0.0,-0.01,0.0,3,Lying,4
2019-01-17,17:08:04,6.41,1.3,6.4399996,0.0,-0.01,0.0,0.0,-0.01,0.0,3,Lying,4
2019-01-17,17:08:04,6.41,1.3,6.4399996,0.0,0.0,0.0,0.0,0.0,0.0,3,Lying,4
2019-01-17,17:08:04,6.4700003,1.24,6.4199996,0.0,0.0,0.0,0.0,0.0,0.0,3,Lying,4
2019-01-17,17:08:04,6.4700003,1.24,6.4199996,0.0,0.0,0.0,0.0,0.0,0.0,3,Lying,4
2019-01-17,17:08:04,6.4700003,1.29,6.4199996,0.0,0.0,0.0,0.0,0.0,0.0,3,Lying,4
2019-01-17,17:08:04,6.4700003,1.29,6.4199996,0.0,0.0,0.01,0.0,0.0,0.01,3,Lying,4
2019-01-17,17:08:04,6.4700003,1.31,6.41,0.0,0.0,0.01,0.0,0.0,0.01,3,Lying,4
2019-01-17,17:08:04,6.4700003,1.31,6.41,0.0,0.0,0.01,0.0,0.0,0.01,3,Lying,4
2019-01-17,17:08:04,6.43,1.21,6.4599996,0.0,0.0,0.01,0.0,0.0,0.01,3,Lying,4
2019-01-17,17:08:04,6.43,1.21,6.4599996,0.0,0.0,0.0,0.0,0.0,0.0,3,Lying,4
2019-01-17,17:08:04,6.44,1.23,6.43,0.0,0.0,0.0,0.0,0.0,0.0,3,Lying,4
2019-01-17,17:08:04,6.44,1.23,6.43,0.0,-0.02,0.0,0.0,-0.02,0.0,3,Lying,4
2019-01-17,17:08:04,6.4500003,1.25,6.3799996,0.0,-0.02,0.0,0.0,-0.02,0.0,3,Lying,4
2019-01-17,17:08:04,6.4500003,1.25,6.3799996,0.0,-0.02,0.0,0.0,-0.02,0.0,3,Lying,4
2019-01-17,17:08:04,6.48,1.3299999,6.3999996,0.0,-0.02,0.0,0.0,-0.02,0.0,3,Lying,4
2019-01-17,17:08:04,6.48,1.3299999,6.3999996,0.0,-0.01,0.02,0.0,-0.01,0.02,3,Lying,4
2019-01-17,17:08:04,6.48,1.24,6.4199996,0.0,-0.01,0.02,0.0,-0.01,0.02,3,Lying,4
2019-01-17,17:08:04,6.48,1.24,6.4199996,0.0,0.0,0.01,0.0,0.0,0.01,3,Lying,4
2019-01-17,17:08:04,6.4500003,1.25,6.47,0.0,0.0,0.01,0.0,0.0,0.01,3,Lying,4
2019-01-17,17:08:04,6.4500003,1.25,6.47,0.0,0.01,0.0,0.0,0.01,0.0,3,Lying,4
2019-01-17,17:08:04,6.38,1.24,6.47,0.0,0.01,0.0,0.0,0.01,0.0,3,Lying,4
2019-01-17,17:08:04,6.38,1.24,6.47,0.0,0.02,0.0,0.0,0.02,0.0,3,Lying,4
2019-01-17,17:08:04,6.38,1.34,6.4399996,0.0,0.02,0.0,0.0,0.02,0.0,3,Lying,4
2019-01-17,17:08:04,6.38,1.34,6.4399996,0.0,0.02,0.0,0.0,0.02,0.0,3,Lying,4
2019-01-17,17:08:04,6.39,1.28,6.47,0.0,0.02,0.0,0.0,0.02,0.0,3,Lying,4
2019-01-17,17:08:04,6.39,1.28,6.47,-0.01,0.0,0.02,-0.01,0.0,0.02,3,Lying,4
2019-01-17,17:08:04,6.4700003,1.26,6.4199996,-0.01,0.0,0.02,-0.01,0.0,0.02,3,Lying,4
2019-01-17,17:08:04,6.4700003,1.26,6.4199996,-0.01,-0.01,0.03,-0.01,-0.01,0.03,3,Lying,4
2019-01-17,17:08:04,6.5,1.25,6.4199996,-0.01,-0.02,0.02,-0.01,-0.02,0.02,3,Lying,4
2019-01-17,17:08:04,6.5,1.25,6.4199996,-0.01,-0.02,0.02,-0.01,-0.02,0.02,3,Lying,4
2019-01-17,17:08:04,6.38,1.18,6.3999996,-0.01,-0.02,0.02,-0.01,-0.02,0.02,3,Lying,4
2019-01-17,17:08:04,6.38,1.18,6.3999996,0.0,0.01,0.0,0.0,0.01,0.0,3,Lying,4
2019-01-17,17:08:04,6.27,1.21,6.43,0.0,0.01,0.0,0.0,0.01,0.0,3,Lying,4
2019-01-17,17:08:04,6.27,1.21,6.43,0.0,0.01,0.0,0.0,0.01,0.0,3,Lying,4
2019-01-17,17:08:04,6.4700003,1.17,6.4999995,0.0,0.01,0.0,0.0,0.01,0.0,3,Lying,4
2019-01-17,17:08:04,6.4700003,1.17,6.4999995,-0.03,-0.07,0.06,-0.03,-0.07,0.06,3,Lying,4
2019-01-17,17:08:04,6.61,1.16,6.4599996,-0.03,-0.07,0.06,-0.03,-0.07,0.06,3,Lying,4
2019-01-17,17:08:04,6.61,1.16,6.4599996,-0.03,-0.07,0.06,-0.03,-0.07,0.06,3,Lying,4
2019-01-17,17:08:04,6.58,1.24,6.3599997,-0.03,-0.07,0.06,-0.03,-0.07,0.06,3,Lying,4
2019-01-17,17:08:04,6.58,1.24,6.3599997,-0.02,-0.02,0.02,-0.02,-0.02,0.02,3,Lying,4
2019-01-17,17:08:04,6.5,1.14,6.41,-0.02,-0.02,0.02,-0.02,-0.02,0.02,3,Lying,4
2019-01-17,17:08:04,6.5,1.14,6.41,-0.01,0.01,0.01,-0.01,0.01,0.01,3,Lying,4
2019-01-17,17:08:04,6.48,1.11,6.4399996,-0.01,0.01,0.01,-0.01,0.01,0.01,3,Lying,4
2019-01-17,17:08:05,6.48,1.11,6.4399996,0.0,0.04,0.0,0.0,0.04,0.0,3,Lying,4
2019-01-17,17:08:05,6.39,1.16,6.43,0.0,0.04,0.0,0.0,0.04,0.0,3,Lying,4
2019-01-17,17:08:05,6.39,1.16,6.43,0.01,0.049999997000000004,-0.01,0.01,0.049999997000000004,-0.01,3,Lying,4
2019-01-17,17:08:05,6.39,1.17,6.5099998,0.01,0.049999997000000004,-0.01,0.01,0.049999997000000004,-0.01,3,Lying,4
2019-01-17,17:08:05,6.39,1.17,6.5099998,0.0,0.06,-0.01,0.0,0.06,-0.01,3,Lying,4
2019-01-17,17:08:05,6.39,1.18,6.47,0.0,0.06,-0.01,0.0,0.06,-0.01,3,Lying,4
2019-01-17,17:08:05,6.39,1.18,6.47,0.01,0.02,0.0,0.01,0.02,0.0,3,Lying,4
2019-01-17,17:08:05,6.37,1.18,6.47,0.01,0.02,0.0,0.01,0.02,0.0,3,Lying,4
2019-01-17,17:08:05,6.37,1.18,6.47,0.0,0.0,0.0,0.0,0.0,0.0,3,Lying,4
2019-01-17,17:08:05,6.37,1.12,6.49,0.0,0.0,0.0,0.0,0.0,0.0,3,Lying,4
2019-01-17,17:08:05,6.37,1.12,6.49,-0.01,0.02,0.0,-0.01,0.02,0.0,3,Lying,4
2019-01-17,17:08:05,6.34,1.13,6.49,-0.01,0.02,0.0,-0.01,0.02,0.0,3,Lying,4
2019-01-17,17:08:05,6.34,1.13,6.49,0.0,0.02,0.0,0.0,0.02,0.0,3,Lying,4
2019-01-17,17:08:05,6.37,1.1899998999999999,6.5199995,0.0,0.02,0.0,0.0,0.02,0.0,3,Lying,4
2019-01-17,17:08:05,6.37,1.1899998999999999,6.5199995,0.0,0.02,0.0,0.0,0.02,0.0,3,Lying,4
2019-01-17,17:08:05,6.34,1.1999999,6.5699997,0.0,0.02,0.0,0.0,0.02,0.0,3,Lying,4
2019-01-17,17:08:05,6.34,1.1999999,6.5699997,0.0,0.02,0.0,0.0,0.02,0.0,3,Lying,4
2019-01-17,17:08:05,6.35,1.1899998999999999,6.5499997,0.0,0.02,0.0,0.0,0.02,0.0,3,Lying,4
2019-01-17,17:08:05,6.35,1.1899998999999999,6.5499997,-0.01,0.0,0.0,-0.01,0.0,0.0,3,Lying,4
2019-01-17,17:08:05,6.35,1.1,6.5399995,-0.01,0.0,0.0,-0.01,0.0,0.0,3,Lying,4
2019-01-17,17:08:05,6.35,1.1,6.5399995,0.0,0.0,0.01,0.0,0.0,0.01,3,Lying,4
2019-01-17,17:08:05,6.32,1.15,6.4999995,0.0,0.0,0.01,0.0,0.0,0.01,3,Lying,4
2019-01-17,17:08:05,6.32,1.15,6.4999995,0.0,0.0,0.0,0.0,0.0,0.0,3,Lying,4
2019-01-17,17:08:05,6.37,1.16,6.4599996,0.0,0.0,0.0,0.0,0.0,0.0,3,Lying,4
2019-01-17,17:08:05,6.37,1.16,6.4599996,0.0,0.0,0.0,0.0,0.0,0.0,3,Lying,4
2019-01-17,17:08:05,6.35,1.13,6.5699997,0.0,0.0,0.0,0.0,0.0,0.0,3,Lying,4
2019-01-17,17:08:05,6.35,1.13,6.5699997,0.0,0.0,0.0,0.0,0.0,0.0,3,Lying,4
2019-01-17,17:08:05,6.33,1.09,6.5199995,0.0,0.0,0.0,0.0,0.0,0.0,3,Lying,4
2019-01-17,17:08:05,6.33,1.09,6.5199995,0.0,0.0,0.0,0.0,0.0,0.0,3,Lying,4
2019-01-17,17:08:05,6.2400002,1.16,6.49,0.0,0.0,0.0,0.0,0.0,0.0,3,Lying,4
2019-01-17,17:08:05,6.2400002,1.16,6.49,0.0,0.0,0.0,0.0,0.0,0.0,3,Lying,4
2019-01-17,17:08:05,6.28,1.18,6.49,0.0,0.0,0.0,0.0,0.0,0.0,3,Lying,4
2019-01-17,17:08:05,6.28,1.18,6.49,0.0,-0.06,0.01,0.0,-0.06,0.01,3,Lying,4
2019-01-17,17:08:05,6.48,1.17,6.4999995,0.0,-0.06,0.01,0.0,-0.06,0.01,3,Lying,4
2019-01-17,17:08:05,6.48,1.17,6.4999995,0.0,-0.07,0.01,0.0,-0.07,0.01,3,Lying,4
2019-01-17,17:08:05,6.38,1.16,6.4999995,0.0,-0.07,0.01,0.0,-0.07,0.01,3,Lying,4
2019-01-17,17:08:05,6.38,1.16,6.4999995,0.01,-0.02,0.0,0.01,-0.02,0.0,3,Lying,4
2019-01-17,17:08:05,6.37,1.15,6.5299997,0.01,-0.02,0.0,0.01,-0.02,0.0,3,Lying,4
2019-01-17,17:08:05,6.37,1.15,6.5299997,0.01,0.0,0.0,0.01,0.0,0.0,3,Lying,4
2019-01-17,17:08:05,6.33,1.1899998999999999,6.5199995,0.01,0.0,0.0,0.01,0.0,0.0,3,Lying,4
2019-01-17,17:08:05,6.33,1.1899998999999999,6.5199995,0.01,-0.01,0.0,0.01,-0.01,0.0,3,Lying,4
2019-01-17,17:08:05,6.33,1.22,6.5299997,0.01,-0.01,0.0,0.01,-0.01,0.0,3,Lying,4
2019-01-17,17:08:05,6.33,1.22,6.5299997,0.01,-0.03,0.0,0.01,-0.03,0.0,3,Lying,4
2019-01-17,17:08:05,6.43,1.18,6.4999995,0.01,-0.03,0.0,0.01,-0.03,0.0,3,Lying,4
2019-01-17,17:08:06,6.43,1.18,6.4999995,0.0,-0.06,0.01,0.0,-0.06,0.01,3,Lying,4
2019-01-17,17:08:06,6.51,1.16,6.5099998,0.0,-0.06,0.01,0.0,-0.06,0.01,3,Lying,4
2019-01-17,17:08:06,6.51,1.16,6.5099998,0.0,-0.07,0.01,0.0,-0.07,0.01,3,Lying,4
2019-01-17,17:08:06,6.54,1.13,6.47,0.0,-0.07,0.01,0.0,-0.07,0.01,3,Lying,4
2019-01-17,17:08:06,6.54,1.13,6.47,0.0,-0.049999997000000004,0.0,0.0,-0.049999997000000004,0.0,3,Lying,4
2019-01-17,17:08:06,6.4500003,1.18,6.43,0.0,-0.049999997000000004,0.0,0.0,-0.049999997000000004,0.0,3,Lying,4
2019-01-17,17:08:06,6.4500003,1.18,6.43,0.0,-0.03,0.01,0.0,-0.03,0.01,3,Lying,4
2019-01-17,17:08:06,6.46,1.14,6.3999996,0.0,-0.03,0.01,0.0,-0.03,0.01,3,Lying,4
2019-01-17,17:08:06,6.46,1.14,6.3999996,0.0,-0.01,0.0,0.0,-0.01,0.0,3,Lying,4
2019-01-17,17:08:06,6.46,1.27,6.43,0.0,-0.01,0.0,0.0,-0.01,0.0,3,Lying,4
2019-01-17,17:08:06,6.46,1.27,6.43,0.01,0.0,0.0,0.01,0.0,0.0,3,Lying,4
2019-01-17,17:08:06,6.44,1.11,6.4399996,0.01,0.0,0.0,0.01,0.0,0.0,3,Lying,4
2019-01-17,17:08:06,6.44,1.11,6.4399996,0.0,-0.02,0.01,0.0,-0.02,0.01,3,Lying,4
2019-01-17,17:08:06,6.4500003,1.0799999,6.4599996,0.0,-0.02,0.01,0.0,-0.02,0.01,3,Lying,4
2019-01-17,17:08:06,6.4500003,1.0799999,6.4599996,0.0,-0.03,0.0,0.0,-0.03,0.0,3,Lying,4
2019-01-17,17:08:06,6.46,1.1999999,6.41,0.0,-0.03,0.0,0.0,-0.03,0.0,3,Lying,4
2019-01-17,17:08:06,6.46,1.1999999,6.41,0.01,-0.01,0.0,0.01,-0.01,0.0,3,Lying,4
2019-01-17,17:08:06,6.46,1.25,6.3999996,0.01,-0.01,0.0,0.01,-0.01,0.0,3,Lying,4
2019-01-17,17:08:06,6.46,1.25,6.3999996,0.0,-0.03,0.01,0.0,-0.03,0.01,3,Lying,4
2019-01-17,17:08:06,6.56,1.1999999,6.39,0.0,-0.03,0.01,0.0,-0.03,0.01,3,Lying,4
2019-01-17,17:08:06,6.56,1.1999999,6.39,0.0,-0.049999997000000004,0.01,0.0,-0.049999997000000004,0.01,3,Lying,4
2019-01-17,17:08:06,6.4900002,1.15,6.4399996,0.0,-0.049999997000000004,0.01,0.0,-0.049999997000000004,0.01,3,Lying,4
2019-01-17,17:08:06,6.4900002,1.15,6.4399996,0.0,-0.02,0.0,0.0,-0.02,0.0,3,Lying,4
2019-01-17,17:08:06,6.54,1.14,6.3999996,0.0,-0.02,0.0,0.0,-0.02,0.0,3,Lying,4
2019-01-17,17:08:06,6.54,1.14,6.3999996,0.0,-0.02,0.0,0.0,-0.02,0.0,3,Lying,4
2019-01-17,17:08:06,6.4500003,1.1899998999999999,6.37,0.0,-0.02,0.0,0.0,-0.02,0.0,3,Lying,4
2019-01-17,17:08:06,6.4500003,1.1899998999999999,6.37,0.0,0.0,0.0,0.0,0.0,0.0,3,Lying,4
2019-01-17,17:08:06,6.4900002,1.15,6.3999996,0.0,0.0,0.0,0.0,0.0,0.0,3,Lying,4
2019-01-17,17:08:06,6.4900002,1.15,6.3999996,0.0,-0.01,0.0,0.0,-0.01,0.0,3,Lying,4
2019-01-17,17:08:06,6.61,1.17,6.43,0.0,-0.01,0.0,0.0,-0.01,0.0,3,Lying,4
2019-01-17,17:08:06,6.61,1.17,6.43,0.01,-0.02,0.0,0.01,-0.02,0.0,3,Lying,4
2019-01-17,17:08:06,6.4900002,1.25,6.39,0.01,-0.02,0.0,0.01,-0.02,0.0,3,Lying,4
2019-01-17,17:08:06,6.4900002,1.25,6.39,0.01,0.01,0.0,0.01,0.01,0.0,3,Lying,4
2019-01-17,17:08:06,6.4500003,1.15,6.41,0.01,0.01,0.0,0.01,0.01,0.0,3,Lying,4
2019-01-17,17:08:06,6.4500003,1.15,6.41,0.0,0.0,0.0,0.0,0.0,0.0,3,Lying,4
2019-01-17,17:08:06,6.48,1.26,6.349999400000001,0.0,0.0,0.0,0.0,0.0,0.0,3,Lying,4
2019-01-17,17:08:06,6.48,1.26,6.349999400000001,0.01,-0.02,0.0,0.01,-0.02,0.0,3,Lying,4
2019-01-17,17:08:06,6.55,1.15,6.39,0.01,-0.02,0.0,0.01,-0.02,0.0,3,Lying,4
2019-01-17,17:08:06,6.55,1.15,6.39,0.0,-0.03,0.01,0.0,-0.03,0.01,3,Lying,4
2019-01-17,17:08:06,6.52,1.22,6.3799996,0.0,-0.03,0.01,0.0,-0.03,0.01,3,Lying,4
2019-01-17,17:08:06,6.52,1.22,6.3799996,0.01,0.0,0.0,0.01,0.0,0.0,3,Lying,4
2019-01-17,17:08:06,6.46,1.17,6.41,0.01,0.0,0.0,0.01,0.0,0.0,3,Lying,4
2019-01-17,17:08:06,6.46,1.17,6.41,0.0,0.01,0.0,0.0,0.01,0.0,3,Lying,4
2019-01-17,17:08:06,6.43,1.16,6.43,0.0,0.01,0.0,0.0,0.01,0.0,3,Lying,4
2019-01-17,17:08:06,6.43,1.16,6.43,0.0,0.0,0.0,0.0,0.0,0.0,3,Lying,4
2019-01-17,17:08:06,6.43,1.25,6.3999996,0.0,0.0,0.0,0.0,0.0,0.0,3,Lying,4
2019-01-17,17:08:07,6.43,1.25,6.3999996,0.01,-0.02,0.0,0.01,-0.02,0.0,3,Lying,4
2019-01-17,17:08:07,6.48,1.22,6.3599997,0.01,-0.02,0.0,0.01,-0.02,0.0,3,Lying,4
2019-01-17,17:08:07,6.48,1.22,6.3599997,0.0,-0.02,0.01,0.0,-0.02,0.01,3,Lying,4
2019-01-17,17:08:07,6.58,1.26,6.3399997,0.0,-0.02,0.01,0.0,-0.02,0.01,3,Lying,4
2019-01-17,17:08:07,6.58,1.26,6.3399997,0.0,-0.03,0.02,0.0,-0.03,0.02,3,Lying,4
2019-01-17,17:08:07,6.5,1.1999999,6.39,0.0,-0.03,0.02,0.0,-0.03,0.02,3,Lying,4
2019-01-17,17:08:07,6.5,1.1999999,6.39,0.0,-0.01,0.0,0.0,-0.01,0.0,3,Lying,4
2019-01-17,17:08:07,6.4900002,1.21,6.3799996,0.0,-0.01,0.0,0.0,-0.01,0.0,3,Lying,4
2019-01-17,17:08:07,6.4900002,1.21,6.3799996,0.0,0.0,0.0,0.0,0.0,0.0,3,Lying,4
2019-01-17,17:08:07,6.4900002,1.1899998999999999,6.37,0.0,0.0,0.0,0.0,0.0,0.0,3,Lying,4
2019-01-17,17:08:07,6.4900002,1.1899998999999999,6.37,0.0,0.0,0.01,0.0,0.0,0.01,3,Lying,4
2019-01-17,17:08:07,6.54,1.16,6.45,0.0,0.0,0.01,0.0,0.0,0.01,3,Lying,4
2019-01-17,17:08:07,6.54,1.16,6.45,0.0,-0.01,0.0,0.0,-0.01,0.0,3,Lying,4
2019-01-17,17:08:07,6.53,1.21,6.349999400000001,0.0,-0.01,0.0,0.0,-0.01,0.0,3,Lying,4
2019-01-17,17:08:07,6.53,1.21,6.349999400000001,0.0,-0.01,0.0,0.0,-0.01,0.0,3,Lying,4
2019-01-17,17:08:07,6.54,1.1999999,6.3799996,0.0,-0.01,0.0,0.0,-0.01,0.0,3,Lying,4
2019-01-17,17:08:07,6.54,1.1999999,6.3799996,0.0,0.0,0.01,0.0,0.0,0.01,3,Lying,4
2019-01-17,17:08:07,6.53,1.24,6.2899995,0.0,0.0,0.01,0.0,0.0,0.01,3,Lying,4
2019-01-17,17:08:07,6.53,1.24,6.2899995,0.0,0.0,0.01,0.0,0.0,0.01,3,Lying,4
2019-01-17,17:08:07,6.51,1.16,6.4199996,0.0,0.0,0.01,0.0,0.0,0.01,3,Lying,4
2019-01-17,17:08:07,6.51,1.16,6.4199996,0.0,-0.01,0.0,0.0,-0.01,0.0,3,Lying,4
2019-01-17,17:08:07,6.54,1.1899998999999999,6.3299994,0.0,-0.01,0.0,0.0,-0.01,0.0,3,Lying,4
2019-01-17,17:08:07,6.54,1.1899998999999999,6.3299994,0.0,-0.02,0.01,0.0,-0.02,0.01,3,Lying,4
2019-01-17,17:08:07,6.4900002,1.1899998999999999,6.3299994,0.0,-0.02,0.01,0.0,-0.02,0.01,3,Lying,4
2019-01-17,17:08:07,6.4900002,1.1899998999999999,6.3299994,0.01,-0.02,0.0,0.01,-0.02,0.0,3,Lying,4
2019-01-17,17:08:07,6.56,1.18,6.4199996,0.01,-0.02,0.0,0.01,-0.02,0.0,3,Lying,4
2019-01-17,17:08:07,6.56,1.18,6.4199996,0.0,-0.01,0.0,0.0,-0.01,0.0,3,Lying,4
2019-01-17,17:08:07,6.51,1.21,6.349999400000001,0.0,-0.01,0.0,0.0,-0.01,0.0,3,Lying,4
2019-01-17,17:08:07,6.51,1.21,6.349999400000001,0.0,0.01,0.01,0.0,0.01,0.01,3,Lying,4
2019-01-17,17:08:07,6.54,1.18,6.3799996,0.0,0.01,0.01,0.0,0.01,0.01,3,Lying,4
2019-01-17,17:08:07,6.54,1.18,6.3799996,0.0,0.0,0.01,0.0,0.0,0.01,3,Lying,4
2019-01-17,17:08:07,6.48,1.18,6.3599997,0.0,0.0,0.01,0.0,0.0,0.01,3,Lying,4
2019-01-17,17:08:07,6.48,1.18,6.3599997,0.0,-0.01,0.0,0.0,-0.01,0.0,3,Lying,4
2019-01-17,17:08:07,6.52,1.15,6.3999996,0.0,-0.01,0.0,0.0,-0.01,0.0,3,Lying,4
2019-01-17,17:08:07,6.52,1.15,6.3999996,0.0,-0.02,0.0,0.0,-0.02,0.0,3,Lying,4
2019-01-17,17:08:07,6.55,1.1999999,6.39,0.0,-0.02,0.0,0.0,-0.02,0.0,3,Lying,4
2019-01-17,17:08:07,6.55,1.1999999,6.39,0.0,-0.02,0.0,0.0,-0.02,0.0,3,Lying,4
2019-01-17,17:08:07,6.65,1.21,6.3799996,0.0,-0.01,0.01,0.0,-0.01,0.01,3,Lying,4
2019-01-17,17:08:07,6.65,1.21,6.3799996,0.0,-0.01,0.01,0.0,-0.01,0.01,3,Lying,4
2019-01-17,17:08:07,6.61,1.21,6.3299994,0.0,-0.01,0.01,0.0,-0.01,0.01,3,Lying,4
2019-01-17,17:08:07,6.61,1.21,6.3299994,0.0,0.0,0.01,0.0,0.0,0.01,3,Lying,4
2019-01-17,17:08:07,6.56,1.1999999,6.3599997,0.0,0.0,0.01,0.0,0.0,0.01,3,Lying,4
2019-01-17,17:08:07,6.56,1.1999999,6.3599997,0.0,0.0,0.0,0.0,0.0,0.0,3,Lying,4
2019-01-17,17:08:07,6.52,1.1899998999999999,6.349999400000001,0.0,0.0,0.0,0.0,0.0,0.0,3,Lying,4
2019-01-17,17:08:07,6.52,1.1899998999999999,6.349999400000001,0.0,0.0,0.0,0.0,0.0,0.0,3,Lying,4
2019-01-17,17:08:07,6.55,1.18,6.41,0.0,0.0,0.0,0.0,0.0,0.0,3,Lying,4
2019-01-17,17:08:07,6.55,1.18,6.41,0.0,0.01,0.0,0.0,0.01,0.0,3,Lying,4
2019-01-17,17:08:07,6.54,1.16,6.45,0.0,0.0,0.01,0.0,0.0,0.01,3,Lying,4
2019-01-17,17:08:07,6.54,1.16,6.45,0.0,0.0,0.01,0.0,0.0,0.01,3,Lying,4
2019-01-17,17:08:07,6.58,1.15,6.4199996,0.0,0.0,0.01,0.0,0.0,0.01,3,Lying,4
2019-01-17,17:08:07,6.58,1.15,6.4199996,-0.01,0.0,0.02,-0.01,0.0,0.02,3,Lying,4
2019-01-17,17:08:08,6.56,1.16,6.2999997,-0.01,0.0,0.02,-0.01,0.0,0.02,3,Lying,4
2019-01-17,17:08:08,6.56,1.16,6.2999997,0.0,0.02,0.01,0.0,0.02,0.01,3,Lying,4
2019-01-17,17:08:08,6.54,1.14,6.39,0.0,0.02,0.01,0.0,0.02,0.01,3,Lying,4
2019-01-17,17:08:08,6.54,1.14,6.39,-0.01,0.02,0.0,-0.01,0.02,0.0,3,Lying,4
2019-01-17,17:08:08,6.54,1.17,6.349999400000001,-0.01,0.02,0.0,-0.01,0.02,0.0,3,Lying,4
2019-01-17,17:08:08,6.54,1.17,6.349999400000001,0.0,0.03,0.0,0.0,0.03,0.0,3,Lying,4
2019-01-17,17:08:08,6.5,1.12,6.5399995,0.0,0.03,0.0,0.0,0.03,0.0,3,Lying,4
2019-01-17,17:08:08,6.5,1.12,6.5399995,-0.01,0.049999997000000004,0.01,-0.01,0.049999997000000004,0.01,3,Lying,4
2019-01-17,17:08:08,6.44,1.15,6.5099998,-0.01,0.049999997000000004,0.01,-0.01,0.049999997000000004,0.01,3,Lying,4
2019-01-17,17:08:08,6.44,1.15,6.5099998,0.0,0.06,0.01,0.0,0.06,0.01,3,Lying,4
2019-01-17,17:08:08,6.4500003,1.18,6.4199996,0.0,0.06,0.01,0.0,0.06,0.01,3,Lying,4
2019-01-17,17:08:08,6.4500003,1.18,6.4199996,0.0,0.049999997000000004,0.01,0.0,0.049999997000000004,0.01,3,Lying,4
2019-01-17,17:08:08,6.44,1.0799999,6.4599996,0.0,0.049999997000000004,0.01,0.0,0.049999997000000004,0.01,3,Lying,4
2019-01-17,17:08:08,6.44,1.0799999,6.4599996,-0.01,0.01,0.01,-0.01,0.01,0.01,3,Lying,4
2019-01-17,17:08:08,6.44,1.1,6.5299997,-0.01,0.01,0.01,-0.01,0.01,0.01,3,Lying,4
2019-01-17,17:08:08,6.44,1.1,6.5299997,0.0,0.01,0.0,0.0,0.01,0.0,3,Lying,4
2019-01-17,17:08:08,6.36,1.12,6.49,0.0,0.01,0.0,0.0,0.01,0.0,3,Lying,4
2019-01-17,17:08:08,6.36,1.12,6.49,0.0,0.03,0.0,0.0,0.03,0.0,3,Lying,4
2019-01-17,17:08:08,6.41,1.17,6.49,0.0,0.03,0.0,0.0,0.03,0.0,3,Lying,4
2019-01-17,17:08:08,6.41,1.17,6.49,0.0,0.03,0.0,0.0,0.03,0.0,3,Lying,4
2019-01-17,17:08:08,6.41,1.12,6.49,0.0,0.03,0.0,0.0,0.03,0.0,3,Lying,4
2019-01-17,17:08:08,6.41,1.12,6.49,0.0,0.02,0.0,0.0,0.02,0.0,3,Lying,4
2019-01-17,17:08:08,6.37,1.15,6.4999995,0.0,0.02,0.0,0.0,0.02,0.0,3,Lying,4
2019-01-17,17:08:08,6.37,1.15,6.4999995,0.0,0.01,0.0,0.0,0.01,0.0,3,Lying,4
2019-01-17,17:08:08,6.43,1.09,6.5299997,0.0,0.01,0.0,0.0,0.01,0.0,3,Lying,4
2019-01-17,17:08:08,6.43,1.09,6.5299997,-0.01,0.01,0.0,-0.01,0.01,0.0,3,Lying,4
2019-01-17,17:08:08,6.33,1.11,6.5099998,-0.01,0.01,0.0,-0.01,0.01,0.0,3,Lying,4
2019-01-17,17:08:08,6.33,1.11,6.5099998,0.0,0.04,0.0,0.0,0.04,0.0,3,Lying,4
2019-01-17,17:08:08,6.34,1.1,6.5499997,0.0,0.04,0.0,0.0,0.04,0.0,3,Lying,4
2019-01-17,17:08:08,6.34,1.1,6.5499997,0.0,0.04,0.0,0.0,0.04,0.0,3,Lying,4
2019-01-17,17:08:08,6.41,1.11,6.5499997,0.0,0.04,0.0,0.0,0.04,0.0,3,Lying,4
2019-01-17,17:08:08,6.41,1.11,6.5499997,0.0,0.03,0.0,0.0,0.03,0.0,3,Lying,4
2019-01-17,17:08:08,6.27,1.18,6.4999995,0.0,0.03,0.0,0.0,0.03,0.0,3,Lying,4
2019-01-17,17:08:08,6.27,1.18,6.4999995,0.02,0.049999997000000004,-0.02,0.02,0.049999997000000004,-0.02,3,Lying,4
2019-01-17,17:08:08,6.26,1.16,6.5299997,0.02,0.049999997000000004,-0.02,0.02,0.049999997000000004,-0.02,3,Lying,4
2019-01-17,17:08:08,6.26,1.16,6.5299997,0.0,0.03,0.0,0.0,0.03,0.0,3,Lying,4
2019-01-17,17:08:08,6.3,1.13,6.5099998,0.0,0.03,0.0,0.0,0.03,0.0,3,Lying,4
2019-01-17,17:08:08,6.3,1.13,6.5099998,0.0,0.02,0.01,0.0,0.02,0.01,3,Lying,4
2019-01-17,17:08:08,6.35,1.15,6.66,0.0,0.02,0.01,0.0,0.02,0.01,3,Lying,4
2019-01-17,17:08:08,6.35,1.15,6.66,-0.01,0.0,0.01,-0.01,0.0,0.01,3,Lying,4
2019-01-17,17:08:08,6.32,1.16,6.5499997,-0.01,0.0,0.01,-0.01,0.0,0.01,3,Lying,4
2019-01-17,17:08:08,6.32,1.16,6.5499997,0.0,0.02,0.0,0.0,0.02,0.0,3,Lying,4
2019-01-17,17:08:08,6.35,1.05,6.5399995,0.0,0.02,0.0,0.0,0.02,0.0,3,Lying,4
2019-01-17,17:08:08,6.35,1.05,6.5399995,0.0,0.02,0.0,0.0,0.02,0.0,3,Lying,4
2019-01-17,17:08:08,6.17,1.15,6.5699997,0.0,0.02,0.0,0.0,0.02,0.0,3,Lying,4
2019-01-17,17:08:08,6.17,1.15,6.5699997,0.0,0.04,-0.02,0.0,0.04,-0.02,3,Lying,4
2019-01-17,17:08:09,6.1800003,1.1999999,6.5699997,0.0,0.04,-0.02,0.0,0.04,-0.02,3,Lying,4
2019-01-17,17:08:09,6.1800003,1.1999999,6.5699997,0.0,0.01,0.0,0.0,0.01,0.0,3,Lying,4
2019-01-17,17:08:09,6.25,1.1899998999999999,6.62,0.0,0.01,0.0,0.0,0.01,0.0,3,Lying,4
2019-01-17,17:08:09,6.25,1.1899998999999999,6.62,0.0,0.01,0.01,0.0,0.01,0.01,3,Lying,4
2019-01-17,17:08:09,6.26,1.17,6.559999499999999,0.0,0.01,0.01,0.0,0.01,0.01,3,Lying,4
2019-01-17,17:08:09,6.26,1.17,6.559999499999999,0.0,0.0,0.0,0.0,0.0,0.0,3,Lying,4
2019-01-17,17:08:09,6.19,1.1999999,6.62,0.0,0.0,0.0,0.0,0.0,0.0,3,Lying,4
2019-01-17,17:08:09,6.19,1.1999999,6.62,0.01,0.0,0.0,0.01,0.0,0.0,3,Lying,4
2019-01-17,17:08:09,6.11,1.13,6.62,0.01,0.0,0.0,0.01,0.0,0.0,3,Lying,4
2019-01-17,17:08:09,6.11,1.13,6.62,0.0,0.0,0.0,0.0,0.0,0.0,3,Lying,4
2019-01-17,17:08:09,6.3,1.12,6.64,0.0,0.0,0.0,0.0,0.0,0.0,3,Lying,4
2019-01-17,17:08:09,6.3,1.12,6.64,0.0,-0.02,0.01,0.0,-0.02,0.01,3,Lying,4
2019-01-17,17:08:09,6.21,1.1999999,6.5699997,0.0,-0.02,0.01,0.0,-0.02,0.01,3,Lying,4
2019-01-17,17:08:09,6.21,1.1999999,6.5699997,0.01,0.0,0.0,0.01,0.0,0.0,3,Lying,4
2019-01-17,17:08:09,6.2400002,1.18,6.6099997,0.01,0.0,0.0,0.01,0.0,0.0,3,Lying,4
2019-01-17,17:08:09,6.2400002,1.18,6.6099997,0.0,-0.01,0.0,0.0,-0.01,0.0,3,Lying,4
2019-01-17,17:08:09,6.26,1.18,6.5699997,0.0,-0.02,0.0,0.0,-0.02,0.0,3,Lying,4
2019-01-17,17:08:09,6.26,1.18,6.5699997,0.0,-0.02,0.0,0.0,-0.02,0.0,3,Lying,4
2019-01-17,17:08:09,6.26,1.1899998999999999,6.6299996,0.0,-0.02,0.0,0.0,-0.02,0.0,3,Lying,4
2019-01-17,17:08:09,6.26,1.1899998999999999,6.6299996,0.0,-0.02,0.01,0.0,-0.02,0.01,3,Lying,4
2019-01-17,17:08:09,6.19,1.14,6.5299997,0.0,-0.02,0.01,0.0,-0.02,0.01,3,Lying,4
2019-01-17,17:08:09,6.19,1.14,6.5299997,0.0,-0.01,0.0,0.0,-0.01,0.0,3,Lying,4
2019-01-17,17:08:09,6.34,1.17,6.5399995,0.0,-0.01,0.0,0.0,-0.01,0.0,3,Lying,4
2019-01-17,17:08:09,6.34,1.17,6.5399995,0.01,-0.01,0.0,0.01,-0.01,0.0,3,Lying,4
2019-01-17,17:08:09,6.17,1.24,6.559999499999999,0.01,-0.01,0.0,0.01,-0.01,0.0,3,Lying,4
2019-01-17,17:08:09,6.17,1.24,6.559999499999999,0.02,0.01,-0.01,0.02,0.01,-0.01,3,Lying,4
2019-01-17,17:08:09,6.17,1.18,6.5299997,0.02,0.01,-0.01,0.02,0.01,-0.01,3,Lying,4
2019-01-17,17:08:09,6.17,1.18,6.5299997,0.01,-0.06,0.0,0.01,-0.06,0.0,3,Lying,4
2019-01-17,17:08:09,6.4,1.22,6.6499996,0.01,-0.06,0.0,0.01,-0.06,0.0,3,Lying,4
2019-01-17,17:08:09,6.4,1.22,6.6499996,0.0,-0.07,0.01,0.0,-0.07,0.01,3,Lying,4
2019-01-17,17:08:09,6.39,1.23,6.5699997,0.0,-0.06,0.01,0.0,-0.06,0.01,3,Lying,4
2019-01-17,17:08:09,6.39,1.23,6.5699997,0.0,-0.06,0.01,0.0,-0.06,0.01,3,Lying,4
2019-01-17,17:08:09,6.33,1.18,6.47,0.0,-0.06,0.01,0.0,-0.06,0.01,3,Lying,4
2019-01-17,17:08:09,6.33,1.18,6.47,0.0,-0.03,0.0,0.0,-0.03,0.0,3,Lying,4
2019-01-17,17:08:09,6.32,1.18,6.4799995,0.0,-0.03,0.0,0.0,-0.03,0.0,3,Lying,4
2019-01-17,17:08:09,6.32,1.18,6.4799995,0.0,-0.02,0.0,0.0,-0.02,0.0,3,Lying,4
2019-01-17,17:08:09,6.35,1.1899998999999999,6.5499997,0.0,-0.02,0.0,0.0,-0.02,0.0,3,Lying,4
2019-01-17,17:08:09,6.35,1.1899998999999999,6.5499997,0.0,-0.02,0.0,0.0,-0.02,0.0,3,Lying,4
2019-01-17,17:08:09,6.31,1.17,6.5399995,0.0,-0.02,0.0,0.0,-0.02,0.0,3,Lying,4
2019-01-17,17:08:09,6.31,1.17,6.5399995,0.01,0.0,0.0,0.01,0.0,0.0,3,Lying,4
2019-01-17,17:08:09,6.3,1.1999999,6.5699997,0.01,0.0,0.0,0.01,0.0,0.0,3,Lying,4
2019-01-17,17:08:09,6.3,1.1999999,6.5699997,0.01,-0.02,0.0,0.01,-0.02,0.0,3,Lying,4
2019-01-17,17:08:09,6.3,1.25,6.47,0.01,-0.02,0.0,0.01,-0.02,0.0,3,Lying,4
2019-01-17,17:08:09,6.3,1.25,6.47,0.0,-0.04,0.01,0.0,-0.04,0.01,3,Lying,4
2019-01-17,17:08:09,6.43,1.15,6.5199995,0.0,-0.04,0.01,0.0,-0.04,0.01,3,Lying,4
2019-01-17,17:08:09,6.43,1.15,6.5199995,0.0,-0.06,0.02,0.0,-0.06,0.02,3,Lying,4
2019-01-17,17:08:09,6.36,1.17,6.4799995,0.0,-0.06,0.02,0.0,-0.06,0.02,3,Lying,4
2019-01-17,17:08:10,6.36,1.17,6.4799995,0.01,-0.049999997000000004,0.01,0.01,-0.049999997000000004,0.01,3,Lying,4
2019-01-17,17:08:10,6.42,1.15,6.47,0.01,-0.049999997000000004,0.01,0.01,-0.049999997000000004,0.01,3,Lying,4
2019-01-17,17:08:10,6.42,1.15,6.47,0.0,-0.04,0.01,0.0,-0.04,0.01,3,Lying,4
2019-01-17,17:08:10,6.44,1.1899998999999999,6.4799995,0.0,-0.04,0.01,0.0,-0.04,0.01,3,Lying,4
2019-01-17,17:08:10,6.44,1.1899998999999999,6.4799995,0.0,-0.02,0.01,0.0,-0.02,0.01,3,Lying,4
2019-01-17,17:08:10,6.43,1.18,6.559999499999999,0.01,-0.01,0.01,0.01,-0.01,0.01,3,Lying,4
2019-01-17,17:08:10,6.43,1.18,6.559999499999999,0.01,-0.01,0.01,0.01,-0.01,0.01,3,Lying,4
2019-01-17,17:08:10,6.4,1.05,6.5799994,0.01,-0.01,0.01,0.01,-0.01,0.01,3,Lying,4
2019-01-17,17:08:10,6.4,1.05,6.5799994,0.0,-0.03,0.0,0.0,-0.03,0.0,3,Lying,4
2019-01-17,17:08:10,6.39,1.22,6.47,0.0,-0.03,0.0,0.0,-0.03,0.0,3,Lying,4
2019-01-17,17:08:10,6.39,1.22,6.47,0.01,-0.03,0.0,0.01,-0.03,0.0,3,Lying,4
2019-01-17,17:08:10,6.4700003,1.18,6.4599996,0.01,-0.03,0.0,0.01,-0.03,0.0,3,Lying,4
2019-01-17,17:08:10,6.4700003,1.18,6.4599996,0.0,-0.03,0.02,0.0,-0.03,0.02,3,Lying,4
2019-01-17,17:08:10,6.42,1.1999999,6.3299994,0.0,-0.03,0.02,0.0,-0.03,0.02,3,Lying,4
2019-01-17,17:08:10,6.42,1.1999999,6.3299994,0.01,-0.02,0.01,0.01,-0.02,0.01,3,Lying,4
2019-01-17,17:08:10,6.52,1.11,6.39,0.01,-0.02,0.01,0.01,-0.02,0.01,3,Lying,4
2019-01-17,17:08:10,6.52,1.11,6.39,0.0,-0.01,0.01,0.0,-0.01,0.01,3,Lying,4
2019-01-17,17:08:10,6.46,1.24,6.45,0.0,-0.01,0.01,0.0,-0.01,0.01,3,Lying,4
2019-01-17,17:08:10,6.46,1.24,6.45,0.01,-0.01,0.0,0.01,-0.01,0.0,3,Lying,4
2019-01-17,17:08:10,6.37,1.18,6.4599996,0.01,-0.01,0.0,0.01,-0.01,0.0,3,Lying,4
2019-01-17,17:08:10,6.37,1.18,6.4599996,0.0,0.0,0.0,0.0,0.0,0.0,3,Lying,4
2019-01-17,17:08:10,6.53,1.15,6.4599996,0.0,-0.02,0.01,0.0,-0.02,0.01,3,Lying,4
2019-01-17,17:08:10,6.53,1.15,6.4599996,0.0,-0.02,0.01,0.0,-0.02,0.01,3,Lying,4
2019-01-17,17:08:10,6.53,1.23,6.37,0.0,-0.02,0.01,0.0,-0.02,0.01,3,Lying,4
2019-01-17,17:08:10,6.53,1.23,6.37,0.0,-0.01,0.0,0.0,-0.01,0.0,3,Lying,4
2019-01-17,17:08:10,6.4500003,1.15,6.43,0.0,-0.01,0.0,0.0,-0.01,0.0,3,Lying,4
2019-01-17,17:08:10,6.4500003,1.15,6.43,0.0,0.0,0.0,0.0,0.0,0.0,3,Lying,4
2019-01-17,17:08:10,6.4500003,1.1999999,6.3999996,0.0,0.0,0.0,0.0,0.0,0.0,3,Lying,4
2019-01-17,17:08:10,6.4500003,1.1999999,6.3999996,0.01,0.0,0.0,0.01,0.0,0.0,3,Lying,4
2019-01-17,17:08:10,6.48,1.14,6.4399996,0.01,0.0,0.0,0.01,0.0,0.0,3,Lying,4
2019-01-17,17:08:10,6.48,1.14,6.4399996,0.0,-0.01,0.01,0.0,-0.01,0.01,3,Lying,4
2019-01-17,17:08:10,6.4500003,1.25,6.41,0.0,-0.01,0.01,0.0,-0.01,0.01,3,Lying,4
2019-01-17,17:08:10,6.4500003,1.25,6.41,0.0,0.0,0.01,0.0,0.0,0.01,3,Lying,4
2019-01-17,17:08:10,6.42,1.15,6.4199996,0.0,0.0,0.01,0.0,0.0,0.01,3,Lying,4
2019-01-17,17:08:10,6.42,1.15,6.4199996,0.0,0.01,0.01,0.0,0.01,0.01,3,Lying,4
2019-01-17,17:08:10,6.44,1.1999999,6.39,0.0,0.01,0.01,0.0,0.01,0.01,3,Lying,4
2019-01-17,17:08:10,6.44,1.1999999,6.39,0.0,-0.02,0.0,0.0,-0.02,0.0,3,Lying,4
2019-01-17,17:08:10,6.48,1.15,6.45,0.0,-0.02,0.0,0.0,-0.02,0.0,3,Lying,4
2019-01-17,17:08:10,6.48,1.15,6.45,0.0,-0.03,0.01,0.0,-0.03,0.01,3,Lying,4
2019-01-17,17:08:10,6.46,1.1999999,6.5299997,0.0,-0.03,0.01,0.0,-0.03,0.01,3,Lying,4
2019-01-17,17:08:10,6.46,1.1999999,6.5299997,0.0,-0.03,0.0,0.0,-0.03,0.0,3,Lying,4
2019-01-17,17:08:10,6.6,1.1899998999999999,6.3999996,0.0,-0.03,0.0,0.0,-0.03,0.0,3,Lying,4
2019-01-17,17:08:10,6.6,1.1899998999999999,6.3999996,0.0,-0.02,0.02,0.0,-0.02,0.02,3,Lying,4
2019-01-17,17:08:11,6.51,1.06,6.41,0.0,-0.02,0.02,0.0,-0.02,0.02,3,Lying,4
2019-01-17,17:08:11,6.51,1.06,6.41,0.0,0.0,0.0,0.0,0.0,0.0,3,Lying,4
2019-01-17,17:08:11,6.48,1.13,6.4199996,0.0,0.0,0.0,0.0,0.0,0.0,3,Lying,4
2019-01-17,17:08:11,6.48,1.13,6.4199996,0.0,0.0,0.0,0.0,0.0,0.0,3,Lying,4
2019-01-17,17:08:11,6.4500003,1.16,6.4599996,0.0,0.0,0.0,0.0,0.0,0.0,3,Lying,4
2019-01-17,17:08:11,6.4500003,1.16,6.4599996,0.0,0.0,0.0,0.0,0.0,0.0,3,Lying,4
2019-01-17,17:08:11,6.5,1.14,6.5299997,0.0,0.0,0.0,0.0,0.0,0.0,3,Lying,4
2019-01-17,17:08:11,6.5,1.14,6.5299997,0.0,-0.01,0.01,0.0,-0.01,0.01,3,Lying,4
2019-01-17,17:08:11,6.5,1.17,6.3399997,0.0,-0.01,0.01,0.0,-0.01,0.01,3,Lying,4
2019-01-17,17:08:11,6.5,1.17,6.3399997,0.0,0.0,0.01,0.0,0.0,0.01,3,Lying,4
2019-01-17,17:08:11,6.53,1.15,6.4199996,0.0,0.0,0.01,0.0,0.0,0.01,3,Lying,4
2019-01-17,17:08:11,6.53,1.15,6.4199996,0.0,0.0,0.01,0.0,0.0,0.01,3,Lying,4
2019-01-17,17:08:11,6.46,1.13,6.45,0.0,0.0,0.01,0.0,0.0,0.01,3,Lying,4
2019-01-17,17:08:11,6.46,1.13,6.45,0.0,0.0,0.0,0.0,0.0,0.0,3,Lying,4
2019-01-17,17:08:11,6.46,1.17,6.4399996,0.0,0.0,0.0,0.0,0.0,0.0,3,Lying,4
2019-01-17,17:08:11,6.46,1.17,6.4399996,0.0,0.0,0.0,0.0,0.0,0.0,3,Lying,4
2019-01-17,17:08:11,6.58,1.18,6.3999996,0.0,0.0,0.0,0.0,0.0,0.0,3,Lying,4
2019-01-17,17:08:11,6.58,1.18,6.3999996,0.0,0.02,0.01,0.0,0.02,0.01,3,Lying,4
2019-01-17,17:08:11,6.54,1.22,6.4599996,0.0,0.02,0.01,0.0,0.02,0.01,3,Lying,4
2019-01-17,17:08:11,6.54,1.22,6.4599996,0.0,0.049999997000000004,0.01,0.0,0.049999997000000004,0.01,3,Lying,4
2019-01-17,17:08:11,6.37,1.13,6.47,0.0,0.049999997000000004,0.01,0.0,0.049999997000000004,0.01,3,Lying,4
2019-01-17,17:08:11,6.37,1.13,6.47,0.0,0.04,0.01,0.0,0.04,0.01,3,Lying,4
2019-01-17,17:08:11,6.42,1.0699999,6.5499997,0.0,0.04,0.01,0.0,0.04,0.01,3,Lying,4
2019-01-17,17:08:11,6.42,1.0699999,6.5499997,0.0,0.01,0.01,0.0,0.01,0.01,3,Lying,4
2019-01-17,17:08:11,6.43,1.18,6.3999996,0.0,0.01,0.01,0.0,0.01,0.01,3,Lying,4
2019-01-17,17:08:11,6.43,1.18,6.3999996,0.0,0.02,0.0,0.0,0.02,0.0,3,Lying,4
2019-01-17,17:08:11,6.41,1.17,6.49,0.0,0.02,0.0,0.0,0.02,0.0,3,Lying,4
2019-01-17,17:08:11,6.41,1.17,6.49,0.0,0.03,0.0,0.0,0.03,0.0,3,Lying,4
2019-01-17,17:08:11,6.4,1.11,6.49,0.0,0.03,0.0,0.0,0.03,0.0,3,Lying,4
2019-01-17,17:08:11,6.4,1.11,6.49,0.0,0.02,0.01,0.0,0.02,0.01,3,Lying,4
2019-01-17,17:08:11,6.4,1.11,6.4999995,0.0,0.02,0.01,0.0,0.02,0.01,3,Lying,4
2019-01-17,17:08:11,6.4,1.11,6.4999995,0.0,0.01,0.0,0.0,0.01,0.0,3,Lying,4
2019-01-17,17:08:11,6.36,1.13,6.4599996,0.0,0.01,0.0,0.0,0.01,0.0,3,Lying,4
2019-01-17,17:08:11,6.36,1.13,6.4599996,-0.01,0.03,0.01,-0.01,0.03,0.01,3,Lying,4
2019-01-17,17:08:11,6.36,1.15,6.5399995,-0.01,0.03,0.01,-0.01,0.03,0.01,3,Lying,4
2019-01-17,17:08:11,6.36,1.15,6.5399995,-0.01,0.04,0.0,-0.01,0.04,0.0,3,Lying,4
2019-01-17,17:08:11,6.36,1.15,6.5199995,-0.01,0.04,0.0,-0.01,0.04,0.0,3,Lying,4
2019-01-17,17:08:11,6.36,1.15,6.5199995,0.0,0.0,0.0,0.0,0.0,0.0,3,Lying,4
2019-01-17,17:08:11,6.42,1.11,6.5099998,0.0,0.0,0.0,0.0,0.0,0.0,3,Lying,4
2019-01-17,17:08:11,6.42,1.11,6.5099998,0.0,0.0,0.01,0.0,0.0,0.01,3,Lying,4
2019-01-17,17:08:11,6.37,1.09,6.5399995,0.0,0.0,0.01,0.0,0.0,0.01,3,Lying,4
2019-01-17,17:08:11,6.37,1.09,6.5399995,0.0,0.02,0.01,0.0,0.02,0.01,3,Lying,4
2019-01-17,17:08:11,6.39,1.0699999,6.5299997,0.0,0.02,0.01,0.0,0.02,0.01,3,Lying,4
2019-01-17,17:08:11,6.39,1.0699999,6.5299997,0.0,0.03,0.0,0.0,0.03,0.0,3,Lying,4
2019-01-17,17:08:11,6.29,1.09,6.62,0.0,0.03,0.0,0.0,0.03,0.0,3,Lying,4
2019-01-17,17:08:12,6.29,1.09,6.62,0.0,0.04,0.0,0.0,0.04,0.0,3,Lying,4
2019-01-17,17:08:12,6.31,1.17,6.5299997,0.0,0.04,0.0,0.0,0.04,0.0,3,Lying,4
2019-01-17,17:08:12,6.31,1.17,6.5299997,0.0,0.04,0.0,0.0,0.04,0.0,3,Lying,4
2019-01-17,17:08:12,6.25,1.18,6.6499996,0.0,0.04,0.0,0.0,0.04,0.0,3,Lying,4
2019-01-17,17:08:12,6.25,1.18,6.6499996,0.0,0.02,0.0,0.0,0.02,0.0,3,Lying,4
2019-01-17,17:08:12,6.28,1.0799999,6.559999499999999,0.0,0.02,0.0,0.0,0.02,0.0,3,Lying,4
2019-01-17,17:08:12,6.28,1.0799999,6.559999499999999,0.0,0.0,0.0,0.0,0.0,0.0,3,Lying,4
2019-01-17,17:08:12,6.27,1.0699999,6.5299997,0.0,0.0,0.0,0.0,0.0,0.0,3,Lying,4
2019-01-17,17:08:12,6.27,1.0699999,6.5299997,0.0,0.0,0.0,0.0,0.0,0.0,3,Lying,4
2019-01-17,17:08:12,6.1800003,1.1,6.4799995,0.0,0.0,0.0,0.0,0.0,0.0,3,Lying,4
2019-01-17,17:08:12,6.1800003,1.1,6.4799995,0.01,0.0,0.0,0.01,0.0,0.0,3,Lying,4
2019-01-17,17:08:12,6.28,1.16,6.4999995,0.01,0.0,0.0,0.01,0.0,0.0,3,Lying,4
2019-01-17,17:08:12,6.28,1.16,6.4999995,0.01,-0.02,0.0,0.01,-0.02,0.0,3,Lying,4
2019-01-17,17:08:12,6.29,1.16,6.5699997,0.01,-0.02,0.0,0.01,-0.02,0.0,3,Lying,4
2019-01-17,17:08:12,6.29,1.16,6.5699997,0.01,-0.03,0.0,0.01,-0.03,0.0,3,Lying,4
2019-01-17,17:08:12,6.31,1.11,6.559999499999999,0.01,-0.03,0.0,0.01,-0.03,0.0,3,Lying,4
2019-01-17,17:08:12,6.31,1.11,6.559999499999999,0.01,-0.03,0.01,0.01,-0.03,0.01,3,Lying,4
2019-01-17,17:08:12,6.31,1.11,6.5199995,0.01,-0.03,0.01,0.01,-0.03,0.01,3,Lying,4
2019-01-17,17:08:12,6.31,1.11,6.5199995,0.0,-0.03,0.0,0.0,-0.03,0.0,3,Lying,4
2019-01-17,17:08:12,6.28,1.11,6.5799994,0.0,-0.03,0.0,0.0,-0.03,0.0,3,Lying,4
2019-01-17,17:08:12,6.28,1.11,6.5799994,0.01,-0.04,0.0,0.01,-0.04,0.0,3,Lying,4
2019-01-17,17:08:12,6.36,1.15,6.5899997,0.01,-0.04,0.0,0.01,-0.04,0.0,3,Lying,4
2019-01-17,17:08:12,6.36,1.15,6.5899997,0.01,-0.06,0.0,0.01,-0.06,0.0,3,Lying,4
2019-01-17,17:08:12,6.38,1.11,6.47,0.01,-0.06,0.0,0.01,-0.06,0.0,3,Lying,4
2019-01-17,17:08:12,6.38,1.11,6.47,0.01,-0.07,0.01,0.01,-0.07,0.01,3,Lying,4
2019-01-17,17:08:12,6.4500003,1.12,6.4999995,0.01,-0.07,0.01,0.01,-0.07,0.01,3,Lying,4
2019-01-17,17:08:12,6.4500003,1.12,6.4999995,0.01,-0.049999997000000004,0.01,0.01,-0.049999997000000004,0.01,3,Lying,4
2019-01-17,17:08:12,6.46,1.15,6.5299997,0.01,-0.049999997000000004,0.01,0.01,-0.049999997000000004,0.01,3,Lying,4
2019-01-17,17:08:12,6.46,1.15,6.5299997,0.01,-0.03,0.0,0.01,-0.03,0.0,3,Lying,4
2019-01-17,17:08:12,6.39,1.16,6.559999499999999,0.01,-0.01,0.0,0.01,-0.01,0.0,3,Lying,4
2019-01-17,17:08:12,6.39,1.16,6.559999499999999,0.01,-0.01,0.0,0.01,-0.01,0.0,3,Lying,4
2019-01-17,17:08:12,6.39,1.1999999,6.5299997,0.01,-0.01,0.0,0.01,-0.01,0.0,3,Lying,4
2019-01-17,17:08:12,6.39,1.1999999,6.5299997,0.0,-0.01,0.0,0.0,-0.01,0.0,3,Lying,4
2019-01-17,17:08:12,6.44,1.18,6.4199996,0.0,-0.01,0.0,0.0,-0.01,0.0,3,Lying,4
2019-01-17,17:08:12,6.44,1.18,6.4199996,0.0,-0.02,0.0,0.0,-0.02,0.0,3,Lying,4
2019-01-17,17:08:12,6.42,1.1,6.4999995,0.0,-0.02,0.0,0.0,-0.02,0.0,3,Lying,4
2019-01-17,17:08:12,6.42,1.1,6.4999995,0.0,-0.02,0.0,0.0,-0.02,0.0,3,Lying,4
2019-01-17,17:08:12,6.35,1.12,6.47,0.0,-0.02,0.0,0.0,-0.02,0.0,3,Lying,4
2019-01-17,17:08:12,6.35,1.12,6.47,0.01,-0.02,0.0,0.01,-0.02,0.0,3,Lying,4
2019-01-17,17:08:12,6.41,1.15,6.47,0.01,-0.02,0.0,0.01,-0.02,0.0,3,Lying,4
2019-01-17,17:08:12,6.41,1.15,6.47,0.0,-0.03,0.01,0.0,-0.03,0.01,3,Lying,4
2019-01-17,17:08:12,6.44,1.14,6.5199995,0.0,-0.03,0.01,0.0,-0.03,0.01,3,Lying,4
2019-01-17,17:08:12,6.44,1.14,6.5199995,0.0,-0.04,0.01,0.0,-0.04,0.01,3,Lying,4
2019-01-17,17:08:12,6.5,1.15,6.37,0.0,-0.04,0.01,0.0,-0.04,0.01,3,Lying,4
2019-01-17,17:08:12,6.5,1.15,6.37,0.01,-0.02,0.0,0.01,-0.02,0.0,3,Lying,4
2019-01-17,17:08:13,6.4900002,1.14,6.43,0.01,-0.02,0.0,0.01,-0.02,0.0,3,Lying,4
2019-01-17,17:08:13,6.4900002,1.14,6.43,0.0,-0.01,0.0,0.0,-0.01,0.0,3,Lying,4
2019-01-17,17:08:13,6.41,1.1899998999999999,6.4999995,0.0,-0.01,0.0,0.0,-0.01,0.0,3,Lying,4
2019-01-17,17:08:13,6.41,1.1899998999999999,6.4999995,0.0,0.01,0.0,0.0,0.01,0.0,3,Lying,4
2019-01-17,17:08:13,6.4500003,1.18,6.4999995,0.0,0.01,0.0,0.0,0.01,0.0,3,Lying,4
2019-01-17,17:08:13,6.4500003,1.18,6.4999995,0.0,0.0,0.0,0.0,0.0,0.0,3,Lying,4
2019-01-17,17:08:13,6.41,1.21,6.47,0.0,0.0,0.0,0.0,0.0,0.0,3,Lying,4
2019-01-17,17:08:13,6.41,1.21,6.47,0.0,-0.02,0.0,0.0,-0.02,0.0,3,Lying,4
2019-01-17,17:08:13,6.46,1.13,6.45,0.0,-0.01,0.01,0.0,-0.01,0.01,3,Lying,4
2019-01-17,17:08:13,6.46,1.13,6.45,0.0,-0.01,0.01,0.0,-0.01,0.01,3,Lying,4
2019-01-17,17:08:13,6.43,1.15,6.41,0.0,-0.01,0.01,0.0,-0.01,0.01,3,Lying,4
2019-01-17,17:08:13,6.43,1.15,6.41,0.0,0.0,0.0,0.0,0.0,0.0,3,Lying,4
2019-01-17,17:08:13,6.43,1.15,6.49,0.0,0.0,0.0,0.0,0.0,0.0,3,Lying,4
2019-01-17,17:08:13,6.43,1.15,6.49,0.0,-0.01,0.0,0.0,-0.01,0.0,3,Lying,4
2019-01-17,17:08:13,6.44,1.17,6.4199996,0.0,-0.01,0.0,0.0,-0.01,0.0,3,Lying,4
2019-01-17,17:08:13,6.44,1.17,6.4199996,0.0,0.0,0.0,0.0,0.0,0.0,3,Lying,4
2019-01-17,17:08:13,6.46,1.17,6.45,0.0,0.0,0.0,0.0,0.0,0.0,3,Lying,4
2019-01-17,17:08:13,6.46,1.17,6.45,0.0,-0.01,0.01,0.0,-0.01,0.01,3,Lying,4
2019-01-17,17:08:13,6.4900002,1.24,6.4399996,0.0,-0.01,0.01,0.0,-0.01,0.01,3,Lying,4
2019-01-17,17:08:13,6.4900002,1.24,6.4399996,0.0,-0.01,0.0,0.0,-0.01,0.0,3,Lying,4
2019-01-17,17:08:13,6.41,1.12,6.4599996,0.0,-0.01,0.0,0.0,-0.01,0.0,3,Lying,4
2019-01-17,17:08:13,6.41,1.12,6.4599996,-0.01,-0.02,0.0,-0.01,-0.02,0.0,3,Lying,4
2019-01-17,17:08:13,6.39,1.18,6.45,-0.01,-0.02,0.0,-0.01,-0.02,0.0,3,Lying,4
2019-01-17,17:08:13,6.39,1.18,6.45,0.0,-0.03,0.0,0.0,-0.03,0.0,3,Lying,4
2019-01-17,17:08:13,6.48,1.21,6.37,0.0,-0.03,0.0,0.0,-0.03,0.0,3,Lying,4
2019-01-17,17:08:13,6.48,1.21,6.37,-0.01,-0.03,0.01,-0.01,-0.03,0.01,3,Lying,4
2019-01-17,17:08:13,6.51,1.17,6.3799996,-0.01,-0.03,0.01,-0.01,-0.03,0.01,3,Lying,4
2019-01-17,17:08:13,6.51,1.17,6.3799996,-0.01,-0.03,0.02,-0.01,-0.03,0.02,3,Lying,4
2019-01-17,17:08:13,6.57,1.06,6.45,-0.01,-0.03,0.02,-0.01,-0.03,0.02,3,Lying,4
2019-01-17,17:08:13,6.57,1.06,6.45,-0.02,-0.03,0.02,-0.02,-0.03,0.02,3,Lying,4
2019-01-17,17:08:13,6.46,1.11,6.39,0.0,-0.02,0.0,0.0,-0.02,0.0,3,Lying,4
2019-01-17,17:08:13,6.46,1.11,6.39,0.0,-0.02,0.0,0.0,-0.02,0.0,3,Lying,4
2019-01-17,17:08:13,6.48,1.0699999,6.3999996,0.0,-0.02,0.0,0.0,-0.02,0.0,3,Lying,4
2019-01-17,17:08:13,6.48,1.0699999,6.3999996,0.0,-0.01,0.01,0.0,-0.01,0.01,3,Lying,4
2019-01-17,17:08:13,6.58,1.09,6.3799996,0.0,-0.01,0.01,0.0,-0.01,0.01,3,Lying,4
2019-01-17,17:08:13,6.58,1.09,6.3799996,-0.01,-0.03,0.02,-0.01,-0.03,0.02,3,Lying,4
2019-01-17,17:08:13,6.6,1.15,6.3799996,-0.01,-0.03,0.02,-0.01,-0.03,0.02,3,Lying,4
2019-01-17,17:08:13,6.6,1.15,6.3799996,0.0,-0.01,0.01,0.0,-0.01,0.01,3,Lying,4
2019-01-17,17:08:13,6.4900002,1.11,6.4199996,0.0,-0.01,0.01,0.0,-0.01,0.01,3,Lying,4
2019-01-17,17:08:13,6.4900002,1.11,6.4199996,0.0,0.0,0.0,0.0,0.0,0.0,3,Lying,4
2019-01-17,17:08:13,6.48,1.11,6.3399997,0.0,0.0,0.0,0.0,0.0,0.0,3,Lying,4
2019-01-17,17:08:13,6.48,1.11,6.3399997,0.0,-0.01,0.0,0.0,-0.01,0.0,3,Lying,4
2019-01-17,17:08:13,6.55,1.1,6.4399996,0.0,-0.01,0.0,0.0,-0.01,0.0,3,Lying,4
2019-01-17,17:08:13,6.55,1.1,6.4399996,0.0,-0.01,0.0,0.0,-0.01,0.0,3,Lying,4
2019-01-17,17:08:13,6.54,1.13,6.41,0.0,-0.01,0.0,0.0,-0.01,0.0,3,Lying,4
2019-01-17,17:08:13,6.54,1.13,6.41,0.0,0.01,0.0,0.0,0.01,0.0,3,Lying,4
2019-01-17,17:08:13,6.5,1.21,6.3999996,0.0,0.01,0.0,0.0,0.01,0.0,3,Lying,4
2019-01-17,17:08:14,6.5,1.21,6.3999996,0.0,0.01,0.0,0.0,0.01,0.0,3,Lying,4
2019-01-17,17:08:14,6.43,1.13,6.45,0.0,0.01,0.0,0.0,0.01,0.0,3,Lying,4
2019-01-17,17:08:14,6.43,1.13,6.45,0.0,0.0,0.0,0.0,0.0,0.0,3,Lying,4
2019-01-17,17:08:14,6.4700003,1.02,6.3599997,0.0,0.0,0.0,0.0,0.0,0.0,3,Lying,4
2019-01-17,17:08:14,6.4700003,1.02,6.3599997,0.0,-0.04,0.01,0.0,-0.04,0.01,3,Lying,4
2019-01-17,17:08:14,6.56,1.09,6.3099995,0.0,-0.04,0.01,0.0,-0.04,0.01,3,Lying,4
2019-01-17,17:08:14,6.56,1.09,6.3099995,0.0,-0.03,0.01,0.0,-0.03,0.01,3,Lying,4
2019-01-17,17:08:14,6.61,1.12,6.41,0.0,-0.03,0.01,0.0,-0.03,0.01,3,Lying,4
2019-01-17,17:08:14,6.61,1.12,6.41,-0.01,0.0,0.01,-0.01,0.0,0.01,3,Lying,4
2019-01-17,17:08:14,6.48,1.14,6.45,-0.01,0.0,0.01,-0.01,0.0,0.01,3,Lying,4
2019-01-17,17:08:14,6.48,1.14,6.45,0.0,0.0,0.0,0.0,0.0,0.0,3,Lying,4
2019-01-17,17:08:14,6.51,1.0799999,6.45,0.0,0.0,0.0,0.0,0.0,0.0,3,Lying,4
2019-01-17,17:08:14,6.51,1.0799999,6.45,0.0,-0.02,0.01,0.0,-0.02,0.01,3,Lying,4
2019-01-17,17:08:14,6.59,1.02,6.37,0.0,-0.02,0.01,0.0,-0.02,0.01,3,Lying,4
2019-01-17,17:08:14,6.59,1.02,6.37,0.0,-0.03,0.01,0.0,-0.03,0.01,3,Lying,4
2019-01-17,17:08:14,6.61,1.06,6.5099998,0.0,-0.03,0.01,0.0,-0.03,0.01,3,Lying,4
2019-01-17,17:08:14,6.61,1.06,6.5099998,0.0,0.01,0.01,0.0,0.01,0.01,3,Lying,4
2019-01-17,17:08:14,6.43,1.0699999,6.4199996,0.0,0.01,0.01,0.0,0.01,0.01,3,Lying,4
2019-01-17,17:08:14,6.43,1.0699999,6.4199996,0.0,0.02,0.0,0.0,0.02,0.0,3,Lying,4
2019-01-17,17:08:14,6.54,1.05,6.41,0.0,0.02,0.0,0.0,0.02,0.0,3,Lying,4
2019-01-17,17:08:14,6.54,1.05,6.41,-0.01,0.0,0.01,-0.01,0.0,0.01,3,Lying,4
2019-01-17,17:08:14,6.53,1.09,6.47,-0.01,0.0,0.01,-0.01,0.0,0.01,3,Lying,4
2019-01-17,17:08:14,6.53,1.09,6.47,-0.01,0.0,0.01,-0.01,0.0,0.01,3,Lying,4
2019-01-17,17:08:14,6.56,1.05,6.39,-0.01,0.0,0.01,-0.01,0.0,0.01,3,Lying,4
2019-01-17,17:08:14,6.56,1.05,6.39,-0.01,0.0,0.01,-0.01,0.0,0.01,3,Lying,4
2019-01-17,17:08:14,6.59,1.0699999,6.47,-0.01,0.0,0.01,-0.01,0.0,0.01,3,Lying,4
2019-01-17,17:08:14,6.59,1.0699999,6.47,-0.01,0.01,0.0,-0.01,0.01,0.0,3,Lying,4
2019-01-17,17:08:14,6.4900002,1.06,6.4399996,-0.01,0.01,0.0,-0.01,0.01,0.0,3,Lying,4
2019-01-17,17:08:14,6.4900002,1.06,6.4399996,-0.01,0.04,0.0,-0.01,0.04,0.0,3,Lying,4
2019-01-17,17:08:14,6.4,1.14,6.3999996,-0.01,0.04,0.0,-0.01,0.04,0.0,3,Lying,4
2019-01-17,17:08:14,6.4,1.14,6.3999996,-0.01,0.02,0.0,-0.01,0.02,0.0,3,Lying,4
2019-01-17,17:08:14,6.43,1.01,6.4599996,-0.01,0.02,0.0,-0.01,0.02,0.0,3,Lying,4
2019-01-17,17:08:14,6.43,1.01,6.4599996,-0.02,0.0,0.01,-0.02,0.0,0.01,3,Lying,4
2019-01-17,17:08:14,6.39,1.02,6.4199996,-0.02,0.0,0.01,-0.02,0.0,0.01,3,Lying,4
2019-01-17,17:08:14,6.39,1.02,6.4199996,0.0,0.0,0.03,0.0,0.0,0.03,3,Lying,4
2019-01-17,17:08:14,6.57,0.96000004,6.47,0.0,0.0,0.03,0.0,0.0,0.03,3,Lying,4
2019-01-17,17:08:14,6.57,0.96000004,6.47,-0.02,-0.01,0.04,-0.02,-0.01,0.04,3,Lying,4
2019-01-17,17:08:14,6.66,0.93999994,6.43,-0.02,-0.01,0.04,-0.02,-0.01,0.04,3,Lying,4
2019-01-17,17:08:14,6.66,0.93999994,6.43,-0.01,0.0,0.04,-0.01,0.0,0.04,3,Lying,4
2019-01-17,17:08:14,6.61,0.91999996,6.37,-0.01,0.0,0.04,-0.01,0.0,0.04,3,Lying,4
2019-01-17,17:08:14,6.61,0.91999996,6.37,0.0,0.02,0.01,0.0,0.02,0.01,3,Lying,4
2019-01-17,17:08:14,6.61,0.9,6.47,0.0,0.02,0.01,0.0,0.02,0.01,3,Lying,4
2019-01-17,17:08:14,6.61,0.9,6.47,0.0,0.03,0.0,0.0,0.03,0.0,3,Lying,4
2019-01-17,17:08:14,6.4900002,0.92999995,6.5299997,0.0,0.03,0.0,0.0,0.03,0.0,3,Lying,4
2019-01-17,17:08:15,6.4900002,0.92999995,6.5299997,0.0,0.06,0.0,0.0,0.06,0.0,3,Lying,4
2019-01-17,17:08:15,6.34,1.04,6.5399995,0.0,0.06,0.0,0.0,0.06,0.0,3,Lying,4
2019-01-17,17:08:15,6.34,1.04,6.5399995,0.0,0.049999997000000004,0.0,0.0,0.049999997000000004,0.0,3,Lying,4
2019-01-17,17:08:15,6.37,0.96000004,6.5199995,0.0,0.049999997000000004,0.0,0.0,0.049999997000000004,0.0,3,Lying,4
2019-01-17,17:08:15,6.37,0.96000004,6.5199995,0.0,0.02,0.0,0.0,0.02,0.0,3,Lying,4
2019-01-17,17:08:15,6.42,0.99,6.4599996,0.0,0.02,0.0,0.0,0.02,0.0,3,Lying,4
2019-01-17,17:08:15,6.42,0.99,6.4599996,0.0,0.01,0.01,0.0,0.01,0.01,3,Lying,4
2019-01-17,17:08:15,6.39,1.05,6.4999995,0.0,0.01,0.01,0.0,0.01,0.01,3,Lying,4
2019-01-17,17:08:15,6.39,1.05,6.4999995,0.01,0.0,0.0,0.01,0.0,0.0,3,Lying,4
2019-01-17,17:08:15,6.36,1.03,6.6099997,0.01,0.0,0.0,0.01,0.0,0.0,3,Lying,4
2019-01-17,17:08:15,6.36,1.03,6.6099997,0.01,0.0,0.0,0.01,0.0,0.0,3,Lying,4
2019-01-17,17:08:15,6.34,1.04,6.5299997,0.01,0.0,0.0,0.01,0.0,0.0,3,Lying,4
2019-01-17,17:08:15,6.34,1.04,6.5299997,0.01,0.0,0.0,0.01,0.0,0.0,3,Lying,4
2019-01-17,17:08:15,6.39,1.06,6.5299997,0.01,0.0,0.0,0.01,0.0,0.0,3,Lying,4
2019-01-17,17:08:15,6.39,1.06,6.5299997,0.01,0.01,0.0,0.01,0.01,0.0,3,Lying,4
2019-01-17,17:08:15,6.36,1.1,6.5099998,0.01,0.01,0.0,0.01,0.01,0.0,3,Lying,4
2019-01-17,17:08:15,6.36,1.1,6.5099998,0.01,0.01,0.0,0.01,0.01,0.0,3,Lying,4
2019-01-17,17:08:15,6.37,0.93999994,6.6099997,0.01,0.01,0.0,0.01,0.01,0.0,3,Lying,4
2019-01-17,17:08:15,6.37,0.93999994,6.6099997,0.0,-0.03,-0.01,0.0,-0.03,-0.01,3,Lying,4
2019-01-17,17:08:15,6.4900002,0.88,6.5499997,0.0,-0.03,-0.01,0.0,-0.03,-0.01,3,Lying,4
2019-01-17,17:08:15,6.4900002,0.88,6.5499997,0.0,-0.049999997000000004,-0.01,0.0,-0.049999997000000004,-0.01,3,Lying,4
2019-01-17,17:08:15,6.69,0.89,6.47,0.0,-0.049999997000000004,-0.01,0.0,-0.049999997000000004,-0.01,3,Lying,4
2019-01-17,17:08:15,6.69,0.89,6.47,0.02,0.02,0.02,0.02,0.02,0.02,3,Lying,4
2019-01-17,17:08:15,6.4900002,1.01,6.43,0.02,0.02,0.02,0.02,0.02,0.02,3,Lying,4
2019-01-17,17:08:15,6.4900002,1.01,6.43,0.049999997000000004,0.07,0.0,0.049999997000000004,0.07,0.0,3,Lying,4
2019-01-17,17:08:15,6.35,1.1,6.4799995,0.049999997000000004,0.07,0.0,0.049999997000000004,0.07,0.0,3,Lying,4
2019-01-17,17:08:15,6.35,1.1,6.4799995,0.04,0.06,-0.03,0.04,0.06,-0.03,3,Lying,4
2019-01-17,17:08:15,6.11,1.1,6.66,0.04,0.06,-0.03,0.04,0.06,-0.03,3,Lying,4
2019-01-17,17:08:15,6.11,1.1,6.66,0.01,0.02,-0.03,0.01,0.02,-0.03,3,Lying,4
2019-01-17,17:08:15,6.21,1.15,6.7,0.01,0.02,-0.03,0.01,0.02,-0.03,3,Lying,4
2019-01-17,17:08:15,6.21,1.15,6.7,0.01,0.01,-0.01,0.01,0.01,-0.01,3,Lying,4
2019-01-17,17:08:15,6.33,1.13,6.5899997,0.01,0.01,-0.01,0.01,0.01,-0.01,3,Lying,4
2019-01-17,17:08:15,6.33,1.13,6.5899997,0.0,0.0,0.0,0.0,0.0,0.0,3,Lying,4
2019-01-17,17:08:15,6.3,1.27,6.5399995,0.0,0.0,0.0,0.0,0.0,0.0,3,Lying,4
2019-01-17,17:08:15,6.3,1.27,6.5399995,0.0,0.0,0.0,0.0,0.0,0.0,3,Lying,4
2019-01-17,17:08:15,6.2200003,1.1999999,6.64,0.0,0.0,0.0,0.0,0.0,0.0,3,Lying,4
2019-01-17,17:08:15,6.2200003,1.1999999,6.64,-0.01,0.01,0.0,-0.01,0.01,0.0,3,Lying,4
2019-01-17,17:08:15,6.1800003,1.31,6.5699997,-0.01,0.01,0.0,-0.01,0.01,0.0,3,Lying,4
2019-01-17,17:08:15,6.1800003,1.31,6.5699997,0.0,0.0,0.0,0.0,0.0,0.0,3,Lying,4
2019-01-17,17:08:15,6.37,1.02,6.6499996,0.0,0.0,0.0,0.0,0.0,0.0,3,Lying,4
2019-01-17,17:08:15,6.37,1.02,6.6499996,-0.02,-0.06,0.02,-0.02,-0.06,0.02,3,Lying,4
2019-01-17,17:08:15,6.43,1.11,6.4999995,-0.02,-0.06,0.02,-0.02,-0.06,0.02,3,Lying,4
2019-01-17,17:08:15,6.43,1.11,6.4999995,0.0,-0.049999997000000004,0.02,0.0,-0.049999997000000004,0.02,3,Lying,4
2019-01-17,17:08:15,6.42,1.0799999,6.5899997,0.0,-0.049999997000000004,0.02,0.0,-0.049999997000000004,0.02,3,Lying,4
2019-01-17,17:08:15,6.42,1.0799999,6.5899997,-0.02,0.0,0.01,-0.02,0.0,0.01,3,Lying,4
2019-01-17,17:08:15,6.31,0.99,6.62,-0.02,0.0,0.01,-0.02,0.0,0.01,3,Lying,4
2019-01-17,17:08:16,6.31,0.99,6.62,-0.03,0.0,0.01,-0.03,0.0,0.01,3,Lying,4
2019-01-17,17:08:16,6.34,0.9499999,6.5299997,-0.03,0.0,0.01,-0.03,0.0,0.01,3,Lying,4
2019-01-17,17:08:16,6.34,0.9499999,6.5299997,-0.03,-0.049999997000000004,0.0,-0.03,-0.049999997000000004,0.0,3,Lying,4
2019-01-17,17:08:16,6.37,1.02,6.4799995,-0.03,-0.049999997000000004,0.0,-0.03,-0.049999997000000004,0.0,3,Lying,4
2019-01-17,17:08:16,6.37,1.02,6.4799995,-0.01,-0.07,0.0,-0.01,-0.07,0.0,3,Lying,4
2019-01-17,17:08:16,6.41,0.99,6.5099998,-0.01,-0.07,0.0,-0.01,-0.07,0.0,3,Lying,4
2019-01-17,17:08:16,6.41,0.99,6.5099998,0.0,0.0,0.01,0.0,0.0,0.01,3,Lying,4
2019-01-17,17:08:16,6.43,0.97,6.5299997,0.0,0.0,0.01,0.0,0.0,0.01,3,Lying,4
2019-01-17,17:08:16,6.43,0.97,6.5299997,0.0,0.0,0.0,0.0,0.0,0.0,3,Lying,4
2019-01-17,17:08:16,6.4,1.05,6.45,0.0,0.0,0.0,0.0,0.0,0.0,3,Lying,4
2019-01-17,17:08:16,6.4,1.05,6.45,0.02,0.0,0.0,0.02,0.0,0.0,3,Lying,4
2019-01-17,17:08:16,6.43,1.01,6.4799995,0.02,0.0,0.0,0.02,0.0,0.0,3,Lying,4
2019-01-17,17:08:16,6.43,1.01,6.4799995,0.01,-0.03,0.0,0.01,-0.03,0.0,3,Lying,4
2019-01-17,17:08:16,6.37,1.05,6.49,0.01,-0.03,0.0,0.01,-0.03,0.0,3,Lying,4
2019-01-17,17:08:16,6.37,1.05,6.49,0.01,-0.02,-0.01,0.01,-0.02,-0.01,3,Lying,4
2019-01-17,17:08:16,6.39,1.04,6.5399995,0.01,-0.03,0.0,0.01,-0.03,0.0,3,Lying,4
2019-01-17,17:08:16,6.39,1.04,6.5399995,0.01,-0.03,0.0,0.01,-0.03,0.0,3,Lying,4
2019-01-17,17:08:16,6.5,1.0699999,6.5099998,0.01,-0.03,0.0,0.01,-0.03,0.0,3,Lying,4
2019-01-17,17:08:16,6.5,1.0699999,6.5099998,0.01,-0.049999997000000004,0.01,0.01,-0.049999997000000004,0.01,3,Lying,4
2019-01-17,17:08:16,6.5,1.05,6.4999995,0.01,-0.03,0.01,0.01,-0.03,0.01,3,Lying,4
2019-01-17,17:08:16,6.5,1.05,6.4999995,0.01,-0.03,0.01,0.01,-0.03,0.01,3,Lying,4
2019-01-17,17:08:16,6.42,1.15,6.4599996,0.01,-0.03,0.01,0.01,-0.03,0.01,3,Lying,4
2019-01-17,17:08:16,6.42,1.15,6.4599996,0.049999997000000004,0.0,-0.02,0.049999997000000004,0.0,-0.02,3,Lying,4
2019-01-17,17:08:16,6.43,1.16,6.4999995,0.049999997000000004,0.0,-0.02,0.049999997000000004,0.0,-0.02,3,Lying,4
2019-01-17,17:08:16,6.43,1.16,6.4999995,0.049999997000000004,0.01,-0.01,0.049999997000000004,0.01,-0.01,3,Lying,4
2019-01-17,17:08:16,6.4500003,1.1999999,6.5299997,0.049999997000000004,0.01,-0.01,0.049999997000000004,0.01,-0.01,3,Lying,4
2019-01-17,17:08:16,6.4500003,1.1999999,6.5299997,0.04,0.02,0.0,0.04,0.02,0.0,3,Lying,4
2019-01-17,17:08:16,6.36,1.13,6.5099998,0.04,0.02,-0.01,0.04,0.02,-0.01,3,Lying,4
2019-01-17,17:08:16,6.36,1.13,6.5099998,0.04,0.02,-0.01,0.04,0.02,-0.01,3,Lying,4
2019-01-17,17:08:16,6.38,1.1,6.4599996,0.04,0.02,-0.01,0.04,0.02,-0.01,3,Lying,4
2019-01-17,17:08:16,6.38,1.1,6.4599996,0.03,-0.01,0.0,0.03,-0.01,0.0,3,Lying,4
2019-01-17,17:08:16,6.4700003,1.1899998999999999,6.3799996,0.03,-0.01,0.0,0.03,-0.01,0.0,3,Lying,4
2019-01-17,17:08:16,6.4700003,1.1899998999999999,6.3799996,0.02,-0.01,0.0,0.02,-0.01,0.0,3,Lying,4
2019-01-17,17:08:16,6.46,1.22,6.47,0.02,-0.01,0.0,0.02,-0.01,0.0,3,Lying,4
2019-01-17,17:08:16,6.46,1.22,6.47,0.0,-0.02,0.0,0.0,-0.02,0.0,3,Lying,4
2019-01-17,17:08:16,6.43,1.1899998999999999,6.4999995,0.0,-0.02,0.0,0.0,-0.02,0.0,3,Lying,4
2019-01-17,17:08:16,6.43,1.1899998999999999,6.4999995,0.0,-0.02,0.0,0.0,-0.02,0.0,3,Lying,4
2019-01-17,17:08:16,6.37,1.27,6.4199996,0.0,-0.02,0.0,0.0,-0.02,0.0,3,Lying,4
2019-01-17,17:08:16,6.37,1.27,6.4199996,0.01,-0.01,0.0,0.01,-0.01,0.0,3,Lying,4
2019-01-17,17:08:16,6.43,1.17,6.47,0.01,-0.01,0.0,0.01,-0.01,0.0,3,Lying,4
2019-01-17,17:08:16,6.43,1.17,6.47,0.0,-0.02,0.0,0.0,-0.02,0.0,3,Lying,4
2019-01-17,17:08:16,6.38,1.21,6.47,0.0,-0.02,0.0,0.0,-0.02,0.0,3,Lying,4
2019-01-17,17:08:16,6.38,1.21,6.47,0.01,0.0,0.0,0.01,0.0,0.0,3,Lying,4
2019-01-17,17:08:16,6.41,1.23,6.5099998,0.01,0.0,0.0,0.01,0.0,0.0,3,Lying,4
2019-01-17,17:08:16,6.41,1.23,6.5099998,0.0,-0.01,0.0,0.0,-0.01,0.0,3,Lying,4
2019-01-17,17:08:17,6.44,1.23,6.4599996,0.0,-0.01,0.0,0.0,-0.01,0.0,3,Lying,4
2019-01-17,17:08:17,6.44,1.23,6.4599996,0.0,-0.04,0.01,0.0,-0.04,0.01,3,Lying,4
2019-01-17,17:08:17,6.4700003,1.1899998999999999,6.39,0.0,-0.04,0.01,0.0,-0.04,0.01,3,Lying,4
2019-01-17,17:08:17,6.4700003,1.1899998999999999,6.39,0.0,-0.04,0.01,0.0,-0.04,0.01,3,Lying,4
2019-01-17,17:08:17,6.4500003,1.17,6.43,0.0,-0.04,0.01,0.0,-0.04,0.01,3,Lying,4
2019-01-17,17:08:17,6.4500003,1.17,6.43,0.0,-0.02,0.0,0.0,-0.02,0.0,3,Lying,4
2019-01-17,17:08:17,6.5,1.14,6.43,0.0,-0.02,0.0,0.0,-0.02,0.0,3,Lying,4
2019-01-17,17:08:17,6.5,1.14,6.43,0.0,-0.02,0.0,0.0,-0.02,0.0,3,Lying,4
2019-01-17,17:08:17,6.46,1.22,6.4199996,0.0,-0.02,0.0,0.0,-0.02,0.0,3,Lying,4
2019-01-17,17:08:17,6.46,1.22,6.4199996,0.0,0.0,0.0,0.0,0.0,0.0,3,Lying,4
2019-01-17,17:08:17,6.4500003,1.24,6.43,0.0,0.0,0.0,0.0,0.0,0.0,3,Lying,4
2019-01-17,17:08:17,6.4500003,1.24,6.43,0.0,0.0,0.0,0.0,0.0,0.0,3,Lying,4
2019-01-17,17:08:17,6.43,1.14,6.4399996,0.0,0.0,0.0,0.0,0.0,0.0,3,Lying,4
2019-01-17,17:08:17,6.43,1.14,6.4399996,0.0,-0.02,0.0,0.0,-0.02,0.0,3,Lying,4
2019-01-17,17:08:17,6.44,1.1999999,6.41,0.0,-0.02,0.0,0.0,-0.02,0.0,3,Lying,4
2019-01-17,17:08:17,6.44,1.1999999,6.41,0.01,-0.02,0.0,0.01,-0.02,0.0,3,Lying,4
2019-01-17,17:08:17,6.5,1.21,6.37,0.01,-0.02,0.0,0.01,-0.02,0.0,3,Lying,4
2019-01-17,17:08:17,6.5,1.21,6.37,0.0,-0.01,0.01,0.0,-0.01,0.01,3,Lying,4
2019-01-17,17:08:17,6.51,1.21,6.39,0.0,-0.01,0.01,0.0,-0.01,0.01,3,Lying,4
2019-01-17,17:08:17,6.51,1.21,6.39,0.0,-0.01,0.01,0.0,-0.01,0.01,3,Lying,4
2019-01-17,17:08:17,6.54,1.16,6.43,0.0,-0.01,0.01,0.0,-0.01,0.01,3,Lying,4
2019-01-17,17:08:17,6.54,1.16,6.43,0.0,-0.01,0.01,0.0,-0.01,0.01,3,Lying,4
2019-01-17,17:08:17,6.4700003,1.1999999,6.39,0.0,-0.01,0.01,0.0,-0.01,0.01,3,Lying,4
2019-01-17,17:08:17,6.4700003,1.1999999,6.39,0.0,-0.01,0.0,0.0,-0.01,0.0,3,Lying,4
2019-01-17,17:08:17,6.5,1.18,6.37,0.0,-0.01,0.0,0.0,-0.01,0.0,3,Lying,4
2019-01-17,17:08:17,6.5,1.18,6.37,0.0,0.0,0.0,0.0,0.0,0.0,3,Lying,4
2019-01-17,17:08:17,6.52,1.1899998999999999,6.4399996,0.0,0.0,0.0,0.0,0.0,0.0,3,Lying,4
2019-01-17,17:08:17,6.52,1.1899998999999999,6.4399996,0.0,0.0,0.0,0.0,0.0,0.0,3,Lying,4
2019-01-17,17:08:17,6.5,1.23,6.43,0.0,0.0,0.0,0.0,0.0,0.0,3,Lying,4
2019-01-17,17:08:17,6.5,1.23,6.43,0.0,0.01,0.0,0.0,0.01,0.0,3,Lying,4
2019-01-17,17:08:17,6.44,1.18,6.47,0.0,0.01,0.0,0.0,0.01,0.0,3,Lying,4
2019-01-17,17:08:17,6.44,1.18,6.47,0.0,0.01,0.01,0.0,0.01,0.01,3,Lying,4
2019-01-17,17:08:17,6.43,1.15,6.4199996,0.0,0.01,0.01,0.0,0.01,0.01,3,Lying,4
2019-01-17,17:08:17,6.43,1.15,6.4199996,0.0,0.0,0.0,0.0,0.0,0.0,3,Lying,4
2019-01-17,17:08:17,6.4500003,1.1899998999999999,6.47,0.0,0.0,0.0,0.0,0.0,0.0,3,Lying,4
2019-01-17,17:08:17,6.4500003,1.1899998999999999,6.47,0.0,0.0,0.01,0.0,0.0,0.01,3,Lying,4
2019-01-17,17:08:17,6.53,1.1899998999999999,6.45,0.0,0.0,0.01,0.0,0.0,0.01,3,Lying,4
2019-01-17,17:08:17,6.53,1.1899998999999999,6.45,0.0,0.02,0.01,0.0,0.02,0.01,3,Lying,4
2019-01-17,17:08:17,6.48,1.22,6.47,0.0,0.02,0.01,0.0,0.02,0.01,3,Lying,4
2019-01-17,17:08:17,6.48,1.22,6.47,0.0,0.04,0.0,0.0,0.04,0.0,3,Lying,4
2019-01-17,17:08:17,6.38,1.1,6.4999995,0.0,0.04,0.0,0.0,0.04,0.0,3,Lying,4
2019-01-17,17:08:17,6.38,1.1,6.4999995,0.0,0.03,0.0,0.0,0.03,0.0,3,Lying,4
2019-01-17,17:08:17,6.39,1.17,6.45,0.0,0.03,0.0,0.0,0.03,0.0,3,Lying,4
2019-01-17,17:08:17,6.39,1.17,6.45,0.0,0.02,0.0,0.0,0.02,0.0,3,Lying,4
2019-01-17,17:08:18,6.4700003,1.1999999,6.45,0.0,0.02,0.0,0.0,0.02,0.0,3,Lying,4
2019-01-17,17:08:18,6.4700003,1.1999999,6.45,0.0,0.02,0.0,0.0,0.02,0.0,3,Lying,4
2019-01-17,17:08:18,6.42,1.1899998999999999,6.4799995,0.0,0.02,0.0,0.0,0.02,0.0,3,Lying,4
2019-01-17,17:08:18,6.42,1.1899998999999999,6.4799995,0.0,0.03,0.0,0.0,0.03,0.0,3,Lying,4
2019-01-17,17:08:18,6.36,1.21,6.5399995,0.0,0.03,0.0,0.0,0.03,0.0,3,Lying,4
2019-01-17,17:08:18,6.36,1.21,6.5399995,0.0,0.04,0.0,0.0,0.04,0.0,3,Lying,4
2019-01-17,17:08:18,6.34,1.14,6.4999995,0.0,0.04,0.0,0.0,0.04,0.0,3,Lying,4
2019-01-17,17:08:18,6.34,1.14,6.4999995,0.0,0.03,0.0,0.0,0.03,0.0,3,Lying,4
2019-01-17,17:08:18,6.36,1.17,6.5199995,0.0,0.03,0.0,0.0,0.03,0.0,3,Lying,4
2019-01-17,17:08:18,6.36,1.17,6.5199995,0.0,0.03,0.0,0.0,0.03,0.0,3,Lying,4
2019-01-17,17:08:18,6.3,1.15,6.5699997,0.0,0.03,0.0,0.0,0.03,0.0,3,Lying,4
2019-01-17,17:08:18,6.3,1.15,6.5699997,0.0,0.03,0.0,0.0,0.03,0.0,3,Lying,4
2019-01-17,17:08:18,6.29,1.1899998999999999,6.5499997,0.0,0.03,0.0,0.0,0.03,0.0,3,Lying,4
2019-01-17,17:08:18,6.29,1.1899998999999999,6.5499997,0.0,0.02,0.0,0.0,0.02,0.0,3,Lying,4
2019-01-17,17:08:18,6.28,1.1999999,6.599999400000001,0.0,0.02,0.0,0.0,0.02,0.0,3,Lying,4
2019-01-17,17:08:18,6.28,1.1999999,6.599999400000001,0.0,0.02,0.0,0.0,0.02,0.0,3,Lying,4
2019-01-17,17:08:18,6.26,1.18,6.5799994,0.0,0.02,0.0,0.0,0.02,0.0,3,Lying,4
2019-01-17,17:08:18,6.26,1.18,6.5799994,0.0,0.01,0.0,0.0,0.01,0.0,3,Lying,4
2019-01-17,17:08:18,6.26,1.17,6.559999499999999,0.0,0.01,0.0,0.0,0.01,0.0,3,Lying,4
2019-01-17,17:08:18,6.26,1.17,6.559999499999999,0.0,0.0,0.0,0.0,0.0,0.0,3,Lying,4
2019-01-17,17:08:18,6.2200003,1.24,6.49,0.0,0.0,0.0,0.0,0.0,0.0,3,Lying,4
2019-01-17,17:08:18,6.2200003,1.24,6.49,0.01,0.0,0.0,0.01,0.0,0.0,3,Lying,4
2019-01-17,17:08:18,6.32,1.1899998999999999,6.5799994,0.0,0.0,0.0,0.0,0.0,0.0,3,Lying,4
2019-01-17,17:08:18,6.32,1.1899998999999999,6.5799994,0.0,0.0,0.0,0.0,0.0,0.0,3,Lying,4
2019-01-17,17:08:18,6.29,1.12,6.5799994,0.0,0.0,0.0,0.0,0.0,0.0,3,Lying,4
2019-01-17,17:08:18,6.29,1.12,6.5799994,0.0,-0.03,0.0,0.0,-0.03,0.0,3,Lying,4
2019-01-17,17:08:18,6.35,1.15,6.5099998,0.0,-0.03,0.0,0.0,-0.03,0.0,3,Lying,4
2019-01-17,17:08:18,6.35,1.15,6.5099998,0.0,-0.03,0.0,0.0,-0.03,0.0,3,Lying,4
2019-01-17,17:08:18,6.27,1.25,6.5299997,0.0,-0.03,0.0,0.0,-0.03,0.0,3,Lying,4
2019-01-17,17:08:18,6.27,1.25,6.5299997,0.01,-0.01,0.0,0.01,-0.01,0.0,3,Lying,4
2019-01-17,17:08:18,6.32,1.24,6.5699997,0.01,-0.01,0.0,0.01,-0.01,0.0,3,Lying,4
2019-01-17,17:08:18,6.32,1.24,6.5699997,0.0,-0.01,0.0,0.0,-0.01,0.0,3,Lying,4
2019-01-17,17:08:18,6.34,1.14,6.5399995,0.0,-0.01,0.0,0.0,-0.01,0.0,3,Lying,4
2019-01-17,17:08:18,6.34,1.14,6.5399995,0.0,-0.03,0.01,0.0,-0.03,0.01,3,Lying,4
2019-01-17,17:08:18,6.35,1.1999999,6.4399996,0.0,-0.03,0.01,0.0,-0.03,0.01,3,Lying,4
2019-01-17,17:08:18,6.35,1.1999999,6.4399996,0.01,-0.03,0.0,0.01,-0.03,0.0,3,Lying,4
2019-01-17,17:08:18,6.33,1.18,6.5799994,0.01,-0.03,0.0,0.01,-0.03,0.0,3,Lying,4
2019-01-17,17:08:18,6.33,1.18,6.5799994,0.0,-0.01,0.0,0.0,-0.01,0.0,3,Lying,4
2019-01-17,17:08:18,6.28,1.1999999,6.559999499999999,0.0,-0.01,0.0,0.0,-0.01,0.0,3,Lying,4
2019-01-17,17:08:18,6.28,1.1999999,6.559999499999999,0.0,-0.01,0.0,0.0,-0.01,0.0,3,Lying,4
2019-01-17,17:08:18,6.33,1.22,6.5099998,0.0,-0.01,0.0,0.0,-0.01,0.0,3,Lying,4
2019-01-17,17:08:18,6.33,1.22,6.5099998,0.0,-0.03,0.01,0.0,-0.03,0.01,3,Lying,4
2019-01-17,17:08:18,6.41,1.1999999,6.4599996,0.0,-0.03,0.01,0.0,-0.03,0.01,3,Lying,4
2019-01-17,17:08:18,6.41,1.1999999,6.4599996,0.0,-0.04,0.01,0.0,-0.04,0.01,3,Lying,4
2019-01-17,17:08:18,6.37,1.18,6.4599996,0.0,-0.04,0.01,0.0,-0.04,0.01,3,Lying,4
2019-01-17,17:08:19,6.37,1.18,6.4599996,0.0,-0.03,0.0,0.0,-0.03,0.0,3,Lying,4
2019-01-17,17:08:19,6.34,1.24,6.4799995,0.0,-0.03,0.0,0.0,-0.03,0.0,3,Lying,4
2019-01-17,17:08:19,6.34,1.24,6.4799995,0.01,-0.03,0.0,0.01,-0.03,0.0,3,Lying,4
2019-01-17,17:08:19,6.41,1.23,6.5099998,0.01,-0.03,0.0,0.01,-0.03,0.0,3,Lying,4
2019-01-17,17:08:19,6.41,1.23,6.5099998,0.0,-0.02,0.01,0.0,-0.02,0.01,3,Lying,4
2019-01-17,17:08:19,6.42,1.26,6.4599996,0.0,-0.02,0.01,0.0,-0.02,0.01,3,Lying,4
2019-01-17,17:08:19,6.42,1.26,6.4599996,0.0,-0.01,0.0,0.0,-0.01,0.0,3,Lying,4
2019-01-17,17:08:19,6.42,1.16,6.5099998,0.0,-0.01,0.0,0.0,-0.01,0.0,3,Lying,4
2019-01-17,17:08:19,6.42,1.16,6.5099998,0.0,-0.02,0.01,0.0,-0.02,0.01,3,Lying,4
2019-01-17,17:08:19,6.38,1.14,6.4399996,0.0,-0.02,0.01,0.0,-0.02,0.01,3,Lying,4
2019-01-17,17:08:19,6.38,1.14,6.4399996,0.01,-0.02,0.0,0.01,-0.02,0.0,3,Lying,4
2019-01-17,17:08:19,6.39,1.25,6.47,0.01,-0.02,0.0,0.01,-0.02,0.0,3,Lying,4
2019-01-17,17:08:19,6.39,1.25,6.47,0.0,-0.02,0.0,0.0,-0.02,0.0,3,Lying,4
2019-01-17,17:08:19,6.44,1.29,6.4999995,0.0,-0.02,0.0,0.0,-0.02,0.0,3,Lying,4
2019-01-17,17:08:19,6.44,1.29,6.4999995,0.0,-0.02,0.01,0.0,-0.02,0.01,3,Lying,4
2019-01-17,17:08:19,6.44,1.23,6.47,0.0,-0.02,0.01,0.0,-0.02,0.01,3,Lying,4
2019-01-17,17:08:19,6.44,1.23,6.47,0.0,-0.03,0.01,0.0,-0.03,0.01,3,Lying,4
2019-01-17,17:08:19,6.43,1.17,6.4399996,0.0,-0.03,0.01,0.0,-0.03,0.01,3,Lying,4
2019-01-17,17:08:19,6.43,1.17,6.4399996,0.0,-0.03,0.0,0.0,-0.03,0.0,3,Lying,4
2019-01-17,17:08:19,6.41,1.1899998999999999,6.4399996,0.0,-0.03,0.0,0.0,-0.03,0.0,3,Lying,4
2019-01-17,17:08:19,6.41,1.1899998999999999,6.4399996,0.0,-0.02,0.0,0.0,-0.02,0.0,3,Lying,4
2019-01-17,17:08:19,6.43,1.1999999,6.4999995,0.0,-0.02,0.0,0.0,-0.02,0.0,3,Lying,4
2019-01-17,17:08:19,6.43,1.1999999,6.4999995,0.0,0.0,0.0,0.0,0.0,0.0,3,Lying,4
2019-01-17,17:08:19,6.4700003,1.25,6.4399996,0.0,0.0,0.0,0.0,0.0,0.0,3,Lying,4
2019-01-17,17:08:19,6.4700003,1.25,6.4399996,0.01,0.0,0.0,0.01,0.0,0.0,3,Lying,4
2019-01-17,17:08:19,6.37,1.24,6.45,0.01,0.0,0.0,0.01,0.0,0.0,3,Lying,4
2019-01-17,17:08:19,6.37,1.24,6.45,0.0,0.0,0.0,0.0,0.0,0.0,3,Lying,4
2019-01-17,17:08:19,6.44,1.22,6.43,0.0,0.0,0.0,0.0,0.0,0.0,3,Lying,4
2019-01-17,17:08:19,6.44,1.22,6.43,0.0,-0.01,0.01,0.0,-0.01,0.01,3,Lying,4
2019-01-17,17:08:19,6.41,1.18,6.4799995,0.0,-0.01,0.01,0.0,-0.01,0.01,3,Lying,4
2019-01-17,17:08:19,6.41,1.18,6.4799995,0.0,-0.02,0.0,0.0,-0.02,0.0,3,Lying,4
2019-01-17,17:08:19,6.46,1.18,6.43,0.0,-0.02,0.0,0.0,-0.02,0.0,3,Lying,4
2019-01-17,17:08:19,6.46,1.18,6.43,0.0,-0.03,0.0,0.0,-0.03,0.0,3,Lying,4
2019-01-17,17:08:19,6.4500003,1.23,6.37,0.0,-0.03,0.0,0.0,-0.03,0.0,3,Lying,4
2019-01-17,17:08:19,6.4500003,1.23,6.37,0.01,-0.01,0.0,0.01,-0.01,0.0,3,Lying,4
2019-01-17,17:08:19,6.4900002,1.18,6.4199996,0.01,-0.01,0.0,0.01,-0.01,0.0,3,Lying,4
2019-01-17,17:08:19,6.4900002,1.18,6.4199996,0.0,-0.01,0.01,0.0,-0.01,0.01,3,Lying,4
2019-01-17,17:08:19,6.4,1.18,6.4199996,0.0,-0.01,0.01,0.0,-0.01,0.01,3,Lying,4
2019-01-17,17:08:19,6.4,1.18,6.4199996,0.0,-0.01,0.0,0.0,-0.01,0.0,3,Lying,4
2019-01-17,17:08:19,6.46,1.17,6.47,0.0,-0.01,0.0,0.0,-0.01,0.0,3,Lying,4
2019-01-17,17:08:19,6.46,1.17,6.47,0.0,-0.03,0.0,0.0,-0.03,0.0,3,Lying,4
2019-01-17,17:08:19,6.48,1.24,6.4199996,0.0,-0.03,0.0,0.0,-0.03,0.0,3,Lying,4
2019-01-17,17:08:19,6.48,1.24,6.4199996,0.0,-0.03,0.0,0.0,-0.03,0.0,3,Lying,4
2019-01-17,17:08:19,6.52,1.25,6.3599997,0.0,-0.03,0.0,0.0,-0.03,0.0,3,Lying,4
2019-01-17,17:08:19,6.52,1.25,6.3599997,0.0,-0.02,0.0,0.0,-0.02,0.0,3,Lying,4
2019-01-17,17:08:20,6.53,1.25,6.41,0.0,-0.02,0.0,0.0,-0.02,0.0,3,Lying,4
2019-01-17,17:08:20,6.53,1.25,6.41,0.0,-0.01,0.01,0.0,-0.01,0.01,3,Lying,4
2019-01-17,17:08:20,6.4900002,1.1999999,6.3799996,0.0,-0.01,0.01,0.0,-0.01,0.01,3,Lying,4
2019-01-17,17:08:20,6.4900002,1.1999999,6.3799996,0.0,-0.02,0.0,0.0,-0.02,0.0,3,Lying,4
2019-01-17,17:08:20,6.4900002,1.15,6.41,0.0,-0.02,0.0,0.0,-0.02,0.0,3,Lying,4
2019-01-17,17:08:20,6.4900002,1.15,6.41,0.0,-0.01,0.0,0.0,-0.01,0.0,3,Lying,4
2019-01-17,17:08:20,6.48,1.24,6.43,0.0,-0.01,0.0,0.0,-0.01,0.0,3,Lying,4
2019-01-17,17:08:20,6.48,1.24,6.43,0.0,0.0,0.0,0.0,0.0,0.0,3,Lying,4
2019-01-17,17:08:20,6.51,1.18,6.4399996,0.0,0.0,0.0,0.0,0.0,0.0,3,Lying,4
2019-01-17,17:08:20,6.51,1.18,6.4399996,0.0,-0.01,0.0,0.0,-0.01,0.0,3,Lying,4
2019-01-17,17:08:20,6.53,1.25,6.41,0.0,-0.01,0.0,0.0,-0.01,0.0,3,Lying,4
2019-01-17,17:08:20,6.53,1.25,6.41,0.0,-0.01,0.01,0.0,-0.01,0.01,3,Lying,4
2019-01-17,17:08:20,6.5,1.22,6.39,0.0,-0.01,0.01,0.0,-0.01,0.01,3,Lying,4
2019-01-17,17:08:20,6.5,1.22,6.39,0.0,-0.02,0.01,0.0,-0.02,0.01,3,Lying,4
2019-01-17,17:08:20,6.51,1.22,6.3799996,0.0,-0.02,0.01,0.0,-0.02,0.01,3,Lying,4
