date,time,accX,accY,accZ,gyroX,gyroY,gyroZ,magX,magY,magZ,Trial,activity,activity_number
2019-01-15,03:37:31,-1.2,-5.95,8.509999,-0.01,-0.049999997000000004,0.0,-0.01,-0.049999997000000004,0.0,3,Lying,4
2019-01-15,03:37:31,-1.16,-5.35,8.54,-0.01,-0.049999997000000004,0.0,-0.01,-0.049999997000000004,0.0,3,Lying,4
2019-01-15,03:37:31,-1.16,-5.35,8.54,0.14999999,0.13,0.07,0.14999999,0.13,0.07,3,Lying,4
2019-01-15,03:37:31,-1.22,-4.13,8.099999,0.14999999,0.13,0.07,0.14999999,0.13,0.07,3,Lying,4
2019-01-15,03:37:31,-1.22,-4.13,8.099999,0.29,0.14999999,0.06,0.29,0.14999999,0.06,3,Lying,4
2019-01-15,03:37:31,-1.47,-4.8399997,8.4,0.29,0.14999999,0.06,0.29,0.14999999,0.06,3,Lying,4
2019-01-15,03:37:31,-1.47,-4.8399997,8.4,-0.06,-0.07,0.0,-0.06,-0.07,0.0,3,Lying,4
2019-01-15,03:37:31,-1.26,-5.3199997,8.49,-0.06,-0.07,0.0,-0.06,-0.07,0.0,3,Lying,4
2019-01-15,03:37:31,-1.26,-5.3199997,8.49,-0.03,-0.42,-0.12,-0.03,-0.42,-0.12,3,Lying,4
2019-01-15,03:37:31,-0.49999997,-5.27,8.62,-0.03,-0.42,-0.12,-0.03,-0.42,-0.12,3,Lying,4
2019-01-15,03:37:31,-0.49999997,-5.27,8.62,0.049999997000000004,-0.53999996,-0.09999999400000001,0.049999997000000004,-0.53999996,-0.09999999400000001,3,Lying,4
2019-01-15,03:37:31,-0.36999997,-5.2,8.599999,0.049999997000000004,-0.53999996,-0.09999999400000001,0.049999997000000004,-0.53999996,-0.09999999400000001,3,Lying,4
2019-01-15,03:37:31,-0.36999997,-5.2,8.599999,0.19999999,-0.17,-0.04,0.19999999,-0.17,-0.04,3,Lying,4
2019-01-15,03:37:31,-0.32,-4.56,8.429999,0.19999999,-0.17,-0.04,0.19999999,-0.17,-0.04,3,Lying,4
2019-01-15,03:37:31,-0.32,-4.56,8.429999,0.28,0.11,0.049999997000000004,0.28,0.11,0.049999997000000004,3,Lying,4
2019-01-15,03:37:31,-0.81,-4.5499997,8.49,0.28,0.11,0.049999997000000004,0.28,0.11,0.049999997000000004,3,Lying,4
2019-01-15,03:37:31,-0.81,-4.5499997,8.49,0.26,0.22999999,0.06,0.26,0.22999999,0.06,3,Lying,4
2019-01-15,03:37:31,-1.25,-4.3999996,8.7,0.26,0.22999999,0.06,0.26,0.22999999,0.06,3,Lying,4
2019-01-15,03:37:31,-1.25,-4.3999996,8.7,0.22,0.14,-0.06,0.22,0.14,-0.06,3,Lying,4
2019-01-15,03:37:31,-1.8199999,-4.3599997,8.23,0.22,0.14,-0.06,0.22,0.14,-0.06,3,Lying,4
2019-01-15,03:37:31,-1.8199999,-4.3599997,8.23,0.14,0.12,-0.049999997000000004,0.14,0.12,-0.049999997000000004,3,Lying,4
2019-01-15,03:37:31,-1.02,-4.5699997,8.74,0.14,0.12,-0.049999997000000004,0.14,0.12,-0.049999997000000004,3,Lying,4
2019-01-15,03:37:31,-1.02,-4.5699997,8.74,-0.049999997000000004,-0.19,0.03,-0.049999997000000004,-0.19,0.03,3,Lying,4
2019-01-15,03:37:31,-0.61,-4.4799995,8.679999,-0.049999997000000004,-0.19,0.03,-0.049999997000000004,-0.19,0.03,3,Lying,4
2019-01-15,03:37:31,-0.61,-4.4799995,8.679999,0.04,-0.21,-0.01,0.04,-0.21,-0.01,3,Lying,4
2019-01-15,03:37:31,-0.74,-4.51,8.61,0.04,-0.21,-0.01,0.04,-0.21,-0.01,3,Lying,4
2019-01-15,03:37:31,-0.74,-4.51,8.61,0.01,0.07,0.04,0.01,0.07,0.04,3,Lying,4
2019-01-15,03:37:31,-1.17,-4.38,8.679999,0.01,0.07,0.04,0.01,0.07,0.04,3,Lying,4
2019-01-15,03:37:31,-1.17,-4.38,8.679999,0.0,0.22,0.03,0.0,0.22,0.03,3,Lying,4
2019-01-15,03:37:31,-1.31,-4.26,8.54,0.0,0.22,0.03,0.0,0.22,0.03,3,Lying,4
2019-01-15,03:37:31,-1.31,-4.26,8.54,0.0,0.17999999,0.03,0.0,0.17999999,0.03,3,Lying,4
2019-01-15,03:37:32,-1.62,-4.64,8.519999499999999,0.0,0.17999999,0.03,0.0,0.17999999,0.03,3,Lying,4
2019-01-15,03:37:32,-1.62,-4.64,8.519999499999999,-0.049999997000000004,-0.04,-0.01,-0.049999997000000004,-0.04,-0.01,3,Lying,4
2019-01-15,03:37:32,-0.88,-4.5499997,8.509999,-0.049999997000000004,-0.04,-0.01,-0.049999997000000004,-0.04,-0.01,3,Lying,4
2019-01-15,03:37:32,-0.88,-4.5499997,8.509999,-0.03,-0.17999999,0.02,-0.03,-0.17999999,0.02,3,Lying,4
2019-01-15,03:37:32,-0.6,-4.8199997,8.71,-0.03,-0.17999999,0.02,-0.03,-0.17999999,0.02,3,Lying,4
2019-01-15,03:37:32,-0.6,-4.8199997,8.71,-0.049999997000000004,-0.16,0.02,-0.049999997000000004,-0.16,0.02,3,Lying,4
2019-01-15,03:37:32,-0.85,-4.47,8.4,-0.049999997000000004,-0.16,0.02,-0.049999997000000004,-0.16,0.02,3,Lying,4
2019-01-15,03:37:32,-0.85,-4.47,8.4,0.049999997000000004,-0.02,0.0,0.049999997000000004,-0.02,0.0,3,Lying,4
2019-01-15,03:37:32,-0.68,-4.65,8.7,0.049999997000000004,-0.02,0.0,0.049999997000000004,-0.02,0.0,3,Lying,4
2019-01-15,03:37:32,-0.68,-4.65,8.7,-0.01,0.04,0.049999997000000004,-0.01,0.04,0.049999997000000004,3,Lying,4
2019-01-15,03:37:32,-0.8,-4.45,8.54,-0.01,0.04,0.049999997000000004,-0.01,0.04,0.049999997000000004,3,Lying,4
2019-01-15,03:37:32,-0.8,-4.45,8.54,0.03,0.07,0.04,0.03,0.07,0.04,3,Lying,4
2019-01-15,03:37:32,-1.1,-4.46,8.519999499999999,0.03,0.07,0.04,0.03,0.07,0.04,3,Lying,4
2019-01-15,03:37:32,-1.1,-4.46,8.519999499999999,0.0,0.089999996,0.0,0.0,0.089999996,0.0,3,Lying,4
2019-01-15,03:37:32,-0.94,-4.4799995,8.75,0.0,0.089999996,0.0,0.0,0.089999996,0.0,3,Lying,4
2019-01-15,03:37:32,-0.94,-4.4799995,8.75,-0.02,0.07,0.0,-0.02,0.07,0.0,3,Lying,4
2019-01-15,03:37:32,-1.63,-4.5,8.4,-0.02,0.07,0.0,-0.02,0.07,0.0,3,Lying,4
2019-01-15,03:37:32,-1.63,-4.5,8.4,-0.01,0.14,-0.01,-0.01,0.14,-0.01,3,Lying,4
2019-01-15,03:37:32,-1.48,-4.75,8.589999,-0.01,0.14,-0.01,-0.01,0.14,-0.01,3,Lying,4
2019-01-15,03:37:32,-1.48,-4.75,8.589999,-0.049999997000000004,0.06,0.01,-0.049999997000000004,0.06,0.01,3,Lying,4
2019-01-15,03:37:32,-1.25,-4.64,8.7,-0.049999997000000004,0.06,0.01,-0.049999997000000004,0.06,0.01,3,Lying,4
2019-01-15,03:37:32,-1.25,-4.64,8.7,-0.03,0.07,0.02,-0.03,0.07,0.02,3,Lying,4
2019-01-15,03:37:32,-1.59,-4.52,8.429999,-0.03,0.07,0.02,-0.03,0.07,0.02,3,Lying,4
2019-01-15,03:37:32,-1.59,-4.52,8.429999,0.049999997000000004,0.01,0.0,0.049999997000000004,0.01,0.0,3,Lying,4
2019-01-15,03:37:32,-1.22,-4.62,8.58,0.049999997000000004,0.01,0.0,0.049999997000000004,0.01,0.0,3,Lying,4
2019-01-15,03:37:32,-1.22,-4.62,8.58,0.02,-0.09999999400000001,0.01,0.02,-0.09999999400000001,0.01,3,Lying,4
2019-01-15,03:37:32,-1.05,-4.39,8.599999,0.02,-0.09999999400000001,0.01,0.02,-0.09999999400000001,0.01,3,Lying,4
2019-01-15,03:37:32,-1.05,-4.39,8.599999,0.04,-0.14,0.0,0.04,-0.14,0.0,3,Lying,4
2019-01-15,03:37:32,-0.61,-4.52,8.58,0.04,-0.14,0.0,0.04,-0.14,0.0,3,Lying,4
2019-01-15,03:37:32,-0.61,-4.52,8.58,-0.01,-0.11,0.0,-0.01,-0.11,0.0,3,Lying,4
2019-01-15,03:37:32,-0.93,-4.71,8.62,-0.01,-0.11,0.0,-0.01,-0.11,0.0,3,Lying,4
2019-01-15,03:37:32,-0.93,-4.71,8.62,-0.04,0.02,0.01,-0.04,0.02,0.01,3,Lying,4
2019-01-15,03:37:32,-1.2,-4.68,8.57,-0.04,0.02,0.01,-0.04,0.02,0.01,3,Lying,4
2019-01-15,03:37:32,-1.2,-4.68,8.57,0.02,0.07,0.02,0.02,0.07,0.02,3,Lying,4
2019-01-15,03:37:32,-1.18,-4.5299997,8.57,0.02,0.07,0.02,0.02,0.07,0.02,3,Lying,4
2019-01-15,03:37:32,-1.18,-4.5299997,8.57,0.049999997000000004,0.02,0.02,0.049999997000000004,0.02,0.02,3,Lying,4
2019-01-15,03:37:32,-1.18,-4.3199997,8.519999499999999,0.049999997000000004,0.02,0.02,0.049999997000000004,0.02,0.02,3,Lying,4
2019-01-15,03:37:32,-1.18,-4.3199997,8.519999499999999,0.049999997000000004,0.01,0.0,0.049999997000000004,0.01,0.0,3,Lying,4
2019-01-15,03:37:32,-1.19,-4.4399996,8.57,0.049999997000000004,0.01,0.0,0.049999997000000004,0.01,0.0,3,Lying,4
2019-01-15,03:37:32,-1.19,-4.4399996,8.57,0.0,0.02,-0.01,0.0,0.02,-0.01,3,Lying,4
2019-01-15,03:37:32,-1.38,-4.26,8.469999000000001,0.0,0.02,-0.01,0.0,0.02,-0.01,3,Lying,4
2019-01-15,03:37:32,-1.38,-4.26,8.469999000000001,-0.02,0.07,0.0,-0.02,0.07,0.0,3,Lying,4
2019-01-15,03:37:33,-1.61,-4.58,8.58,-0.07,0.049999997000000004,-0.04,-0.07,0.049999997000000004,-0.04,3,Lying,4
2019-01-15,03:37:33,-1.61,-4.58,8.58,-0.07,0.049999997000000004,-0.04,-0.07,0.049999997000000004,-0.04,3,Lying,4
2019-01-15,03:37:33,-1.42,-4.56,8.469999000000001,-0.07,0.049999997000000004,-0.04,-0.07,0.049999997000000004,-0.04,3,Lying,4
2019-01-15,03:37:33,-1.42,-4.56,8.469999000000001,-0.04,-0.089999996,-0.03,-0.04,-0.089999996,-0.03,3,Lying,4
2019-01-15,03:37:33,-0.79,-4.7799997,8.66,-0.04,-0.089999996,-0.03,-0.04,-0.089999996,-0.03,3,Lying,4
2019-01-15,03:37:33,-0.79,-4.7799997,8.66,-0.04,-0.14999999,0.0,-0.04,-0.14999999,0.0,3,Lying,4
2019-01-15,03:37:33,-0.79,-4.6,8.549999,-0.04,-0.14999999,0.0,-0.04,-0.14999999,0.0,3,Lying,4
2019-01-15,03:37:33,-0.79,-4.6,8.549999,0.01,-0.06,0.0,0.01,-0.06,0.0,3,Lying,4
2019-01-15,03:37:33,-0.90000004,-4.5699997,8.5,0.01,-0.06,0.0,0.01,-0.06,0.0,3,Lying,4
2019-01-15,03:37:33,-0.90000004,-4.5699997,8.5,0.02,-0.01,0.0,0.02,-0.01,0.0,3,Lying,4
2019-01-15,03:37:33,-0.81,-4.6099997,8.57,0.02,-0.01,0.0,0.02,-0.01,0.0,3,Lying,4
2019-01-15,03:37:33,-0.81,-4.6099997,8.57,-0.01,0.0,0.01,-0.01,0.0,0.01,3,Lying,4
2019-01-15,03:37:33,-0.98,-4.65,8.5,-0.01,0.0,0.01,-0.01,0.0,0.01,3,Lying,4
2019-01-15,03:37:33,-0.98,-4.65,8.5,-0.01,0.03,0.01,-0.01,0.03,0.01,3,Lying,4
2019-01-15,03:37:33,-1.14,-4.72,8.58,-0.01,0.03,0.01,-0.01,0.03,0.01,3,Lying,4
2019-01-15,03:37:33,-1.14,-4.72,8.58,-0.03,0.06,0.0,-0.03,0.06,0.0,3,Lying,4
2019-01-15,03:37:33,-1.27,-4.5699997,8.5,-0.03,0.06,0.0,-0.03,0.06,0.0,3,Lying,4
2019-01-15,03:37:33,-1.27,-4.5699997,8.5,0.0,0.049999997000000004,0.0,0.0,0.049999997000000004,0.0,3,Lying,4
2019-01-15,03:37:33,-1.42,-4.62,8.599999,0.0,0.049999997000000004,0.0,0.0,0.049999997000000004,0.0,3,Lying,4
2019-01-15,03:37:33,-1.42,-4.62,8.599999,0.01,0.03,0.0,0.01,0.03,0.0,3,Lying,4
2019-01-15,03:37:33,-1.42,-4.62,8.599999,0.01,0.03,0.0,0.01,0.03,0.0,3,Lying,4
2019-01-15,03:37:33,-1.12,-4.63,8.519999499999999,0.01,0.03,0.0,0.01,0.03,0.0,3,Lying,4
2019-01-15,03:37:33,-1.12,-4.63,8.519999499999999,0.01,-0.04,0.02,0.01,-0.04,0.02,3,Lying,4
2019-01-15,03:37:33,-1.03,-4.67,8.5,0.01,-0.04,0.02,0.01,-0.04,0.02,3,Lying,4
2019-01-15,03:37:33,-1.03,-4.67,8.5,0.01,0.0,0.02,0.01,0.0,0.02,3,Lying,4
2019-01-15,03:37:33,-0.94,-4.65,8.61,0.01,0.0,0.02,0.01,0.0,0.02,3,Lying,4
2019-01-15,03:37:33,-0.94,-4.65,8.61,0.02,0.01,0.03,0.02,0.01,0.03,3,Lying,4
2019-01-15,03:37:33,-1.17,-4.54,8.48,0.02,0.01,0.03,0.02,0.01,0.03,3,Lying,4
2019-01-15,03:37:33,-1.17,-4.54,8.48,0.01,0.06,0.0,0.01,0.06,0.0,3,Lying,4
2019-01-15,03:37:33,-1.42,-4.5899997,8.469999000000001,0.01,0.06,0.0,0.01,0.06,0.0,3,Lying,4
2019-01-15,03:37:33,-1.42,-4.5899997,8.469999000000001,0.01,0.03,0.0,0.01,0.03,0.0,3,Lying,4
2019-01-15,03:37:33,-1.11,-4.54,8.62,0.01,0.03,0.0,0.01,0.03,0.0,3,Lying,4
2019-01-15,03:37:33,-1.11,-4.54,8.62,0.0,-0.049999997000000004,0.0,0.0,-0.049999997000000004,0.0,3,Lying,4
2019-01-15,03:37:33,-1.03,-4.5699997,8.589999,0.0,-0.049999997000000004,0.0,0.0,-0.049999997000000004,0.0,3,Lying,4
2019-01-15,03:37:33,-1.03,-4.5699997,8.589999,0.0,-0.02,0.0,0.0,-0.02,0.0,3,Lying,4
2019-01-15,03:37:33,-1.28,-4.5699997,8.549999,0.0,-0.02,0.0,0.0,-0.02,0.0,3,Lying,4
2019-01-15,03:37:33,-1.28,-4.5699997,8.549999,0.01,0.04,0.0,0.01,0.04,0.0,3,Lying,4
2019-01-15,03:37:33,-1.22,-4.6099997,8.589999,0.01,0.04,0.0,0.01,0.04,0.0,3,Lying,4
2019-01-15,03:37:33,-1.22,-4.6099997,8.589999,0.0,0.01,0.0,0.0,0.01,0.0,3,Lying,4
2019-01-15,03:37:33,-1.18,-4.5299997,8.58,0.03,0.0,0.0,0.03,0.0,0.0,3,Lying,4
2019-01-15,03:37:33,-1.18,-4.5299997,8.58,0.03,0.0,0.0,0.03,0.0,0.0,3,Lying,4
2019-01-15,03:37:33,-1.12,-4.58,8.62,0.03,0.0,0.0,0.03,0.0,0.0,3,Lying,4
2019-01-15,03:37:33,-1.12,-4.58,8.62,0.03,-0.03,0.0,0.03,-0.03,0.0,3,Lying,4
2019-01-15,03:37:33,-1.24,-4.5299997,8.53,0.03,-0.03,0.0,0.03,-0.03,0.0,3,Lying,4
2019-01-15,03:37:33,-1.24,-4.5299997,8.53,0.03,0.0,0.0,0.03,0.0,0.0,3,Lying,4
2019-01-15,03:37:33,-1.35,-4.54,8.519999499999999,0.03,0.0,0.0,0.03,0.0,0.0,3,Lying,4
2019-01-15,03:37:33,-1.35,-4.54,8.519999499999999,0.04,0.0,0.0,0.04,0.0,0.0,3,Lying,4
2019-01-15,03:37:34,-1.17,-4.6099997,8.629999,0.04,0.0,0.0,0.04,0.0,0.0,3,Lying,4
2019-01-15,03:37:34,-1.17,-4.6099997,8.629999,0.04,-0.03,0.0,0.04,-0.03,0.0,3,Lying,4
2019-01-15,03:37:34,-1.04,-4.4399996,8.639999000000001,0.04,-0.03,0.0,0.04,-0.03,0.0,3,Lying,4
2019-01-15,03:37:34,-1.04,-4.4399996,8.639999000000001,0.049999997000000004,-0.02,0.03,0.049999997000000004,-0.02,0.03,3,Lying,4
2019-01-15,03:37:34,-1.0600001000000001,-4.39,8.509999,0.049999997000000004,-0.02,0.03,0.049999997000000004,-0.02,0.03,3,Lying,4
2019-01-15,03:37:34,-1.0600001000000001,-4.39,8.509999,0.04,0.02,0.02,0.04,0.02,0.02,3,Lying,4
2019-01-15,03:37:34,-1.26,-4.33,8.599999,0.04,0.02,0.02,0.04,0.02,0.02,3,Lying,4
2019-01-15,03:37:34,-1.26,-4.33,8.599999,0.0,0.06,0.0,0.0,0.06,0.0,3,Lying,4
2019-01-15,03:37:34,-1.3,-4.22,8.519999499999999,0.0,0.06,0.0,0.0,0.06,0.0,3,Lying,4
2019-01-15,03:37:34,-1.3,-4.22,8.519999499999999,0.0,0.04,0.0,0.0,0.04,0.0,3,Lying,4
2019-01-15,03:37:34,-1.42,-4.3999996,8.53,0.0,0.04,0.0,0.0,0.04,0.0,3,Lying,4
2019-01-15,03:37:34,-1.42,-4.3999996,8.53,-0.049999997000000004,0.02,-0.01,-0.049999997000000004,0.02,-0.01,3,Lying,4
2019-01-15,03:37:34,-1.38,-4.4799995,8.639999000000001,-0.049999997000000004,0.02,-0.01,-0.049999997000000004,0.02,-0.01,3,Lying,4
2019-01-15,03:37:34,-1.38,-4.4799995,8.639999000000001,-0.07,-0.01,-0.02,-0.07,-0.01,-0.02,3,Lying,4
2019-01-15,03:37:34,-1.37,-4.56,8.509999,-0.07,-0.01,-0.02,-0.07,-0.01,-0.02,3,Lying,4
2019-01-15,03:37:34,-1.37,-4.56,8.509999,-0.06,-0.02,-0.02,-0.06,-0.02,-0.02,3,Lying,4
2019-01-15,03:37:34,-1.4399998999999999,-4.68,8.589999,-0.06,-0.02,-0.02,-0.06,-0.02,-0.02,3,Lying,4
2019-01-15,03:37:34,-1.4399998999999999,-4.68,8.589999,-0.06,-0.03,0.0,-0.06,-0.03,0.0,3,Lying,4
2019-01-15,03:37:34,-1.21,-4.73,8.58,-0.06,-0.03,0.0,-0.06,-0.03,0.0,3,Lying,4
2019-01-15,03:37:34,-1.21,-4.73,8.58,-0.01,-0.09999999400000001,-0.01,-0.01,-0.09999999400000001,-0.01,3,Lying,4
2019-01-15,03:37:34,-0.95,-4.6,8.54,-0.01,-0.09999999400000001,-0.01,-0.01,-0.09999999400000001,-0.01,3,Lying,4
2019-01-15,03:37:34,-0.95,-4.6,8.54,0.01,-0.11,0.01,0.01,-0.11,0.01,3,Lying,4
2019-01-15,03:37:34,-0.81,-4.5699997,8.53,0.01,-0.11,0.01,0.01,-0.11,0.01,3,Lying,4
2019-01-15,03:37:34,-0.81,-4.5699997,8.53,0.02,-0.08,0.0,0.02,-0.08,0.0,3,Lying,4
2019-01-15,03:37:34,-0.92,-4.5899997,8.58,0.02,-0.08,0.0,0.02,-0.08,0.0,3,Lying,4
2019-01-15,03:37:34,-0.92,-4.5899997,8.58,0.01,-0.08,-0.02,0.01,-0.08,-0.02,3,Lying,4
2019-01-15,03:37:34,-0.87,-4.6,8.54,0.01,-0.08,-0.02,0.01,-0.08,-0.02,3,Lying,4
2019-01-15,03:37:34,-0.87,-4.6,8.54,0.01,-0.06,-0.02,0.01,-0.06,-0.02,3,Lying,4
2019-01-15,03:37:34,-0.82,-4.6099997,8.629999,0.01,-0.06,-0.02,0.01,-0.06,-0.02,3,Lying,4
2019-01-15,03:37:34,-0.82,-4.6099997,8.629999,0.01,-0.03,-0.01,0.01,-0.03,-0.01,3,Lying,4
2019-01-15,03:37:34,-0.93,-4.65,8.599999,0.01,-0.03,-0.01,0.01,-0.03,-0.01,3,Lying,4
2019-01-15,03:37:34,-0.93,-4.65,8.599999,0.01,0.01,0.0,0.01,0.01,0.0,3,Lying,4
2019-01-15,03:37:34,-1.01,-4.4799995,8.549999,0.01,0.01,0.0,0.01,0.01,0.0,3,Lying,4
2019-01-15,03:37:34,-1.01,-4.4799995,8.549999,0.03,0.04,0.0,0.03,0.04,0.0,3,Lying,4
2019-01-15,03:37:34,-1.19,-4.49,8.559999000000001,0.03,0.04,0.0,0.03,0.04,0.0,3,Lying,4
2019-01-15,03:37:34,-1.19,-4.49,8.559999000000001,0.01,0.04,0.0,0.01,0.04,0.0,3,Lying,4
2019-01-15,03:37:34,-1.19,-4.52,8.54,0.01,0.04,0.0,0.01,0.04,0.0,3,Lying,4
2019-01-15,03:37:34,-1.19,-4.52,8.54,0.0,0.02,0.0,0.0,0.02,0.0,3,Lying,4
2019-01-15,03:37:34,-1.11,-4.4799995,8.519999499999999,0.0,0.02,0.0,0.0,0.02,0.0,3,Lying,4
2019-01-15,03:37:34,-1.11,-4.4799995,8.519999499999999,-0.01,0.02,0.0,-0.01,0.02,0.0,3,Lying,4
2019-01-15,03:37:34,-1.18,-4.51,8.57,-0.01,0.02,0.0,-0.01,0.02,0.0,3,Lying,4
2019-01-15,03:37:34,-1.18,-4.51,8.57,-0.02,0.049999997000000004,0.0,-0.02,0.049999997000000004,0.0,3,Lying,4
2019-01-15,03:37:34,-1.2,-4.6099997,8.57,-0.02,0.049999997000000004,0.0,-0.02,0.049999997000000004,0.0,3,Lying,4
2019-01-15,03:37:34,-1.2,-4.6099997,8.57,-0.03,0.04,0.0,-0.03,0.04,0.0,3,Lying,4
2019-01-15,03:37:34,-1.24,-4.5699997,8.54,-0.03,0.04,0.0,-0.03,0.04,0.0,3,Lying,4
2019-01-15,03:37:34,-1.24,-4.5699997,8.54,-0.02,0.01,0.0,-0.02,0.01,0.0,3,Lying,4
2019-01-15,03:37:35,-1.08,-4.58,8.519999499999999,-0.02,0.01,0.0,-0.02,0.01,0.0,3,Lying,4
2019-01-15,03:37:35,-1.08,-4.58,8.519999499999999,-0.03,-0.049999997000000004,-0.03,-0.03,-0.049999997000000004,-0.03,3,Lying,4
2019-01-15,03:37:35,-1.05,-4.5899997,8.589999,-0.03,-0.049999997000000004,-0.03,-0.03,-0.049999997000000004,-0.03,3,Lying,4
2019-01-15,03:37:35,-1.05,-4.5899997,8.589999,-0.02,-0.04,-0.03,-0.02,-0.04,-0.03,3,Lying,4
2019-01-15,03:37:35,-0.96,-4.5299997,8.509999,-0.02,-0.04,-0.03,-0.02,-0.04,-0.03,3,Lying,4
2019-01-15,03:37:35,-0.96,-4.5299997,8.509999,-0.01,-0.02,-0.01,-0.01,-0.02,-0.01,3,Lying,4
2019-01-15,03:37:35,-1.08,-4.5699997,8.559999000000001,-0.01,-0.02,-0.01,-0.01,-0.02,-0.01,3,Lying,4
2019-01-15,03:37:35,-1.08,-4.5699997,8.559999000000001,-0.04,0.01,-0.01,-0.04,0.01,-0.01,3,Lying,4
2019-01-15,03:37:35,-1.15,-4.66,8.5,-0.04,0.01,-0.01,-0.04,0.01,-0.01,3,Lying,4
2019-01-15,03:37:35,-1.15,-4.66,8.5,-0.04,0.01,0.0,-0.04,0.01,0.0,3,Lying,4
2019-01-15,03:37:35,-1.03,-4.66,8.5,-0.04,0.01,0.0,-0.04,0.01,0.0,3,Lying,4
2019-01-15,03:37:35,-1.03,-4.66,8.5,-0.049999997000000004,0.0,0.01,-0.049999997000000004,0.0,0.01,3,Lying,4
2019-01-15,03:37:35,-1.0600001000000001,-4.68,8.509999,-0.049999997000000004,0.0,0.01,-0.049999997000000004,0.0,0.01,3,Lying,4
2019-01-15,03:37:35,-1.0600001000000001,-4.68,8.509999,-0.06,0.01,0.0,-0.06,0.01,0.0,3,Lying,4
2019-01-15,03:37:35,-1.13,-4.49,8.509999,-0.06,0.01,0.0,-0.06,0.01,0.0,3,Lying,4
2019-01-15,03:37:35,-1.13,-4.49,8.509999,-0.03,0.01,0.0,-0.03,0.01,0.0,3,Lying,4
2019-01-15,03:37:35,-1.2,-4.62,8.4,-0.03,0.01,0.0,-0.03,0.01,0.0,3,Lying,4
2019-01-15,03:37:35,-1.2,-4.62,8.4,-0.06,-0.01,-0.01,-0.06,-0.01,-0.01,3,Lying,4
2019-01-15,03:37:35,-1.25,-4.93,8.45,-0.06,-0.01,-0.01,-0.06,-0.01,-0.01,3,Lying,4
2019-01-15,03:37:35,-1.25,-4.93,8.45,-0.07,-0.13,-0.049999997000000004,-0.07,-0.13,-0.049999997000000004,3,Lying,4
2019-01-15,03:37:35,-1.03,-4.85,8.54,-0.07,-0.13,-0.049999997000000004,-0.07,-0.13,-0.049999997000000004,3,Lying,4
2019-01-15,03:37:35,-1.03,-4.85,8.54,-0.03,-0.17,-0.049999997000000004,-0.03,-0.17,-0.049999997000000004,3,Lying,4
2019-01-15,03:37:35,-1.01,-5.0899997,8.48,-0.01,-0.09999999400000001,-0.04,-0.01,-0.09999999400000001,-0.04,3,Lying,4
2019-01-15,03:37:35,-1.01,-5.0899997,8.48,-0.01,-0.09999999400000001,-0.04,-0.01,-0.09999999400000001,-0.04,3,Lying,4
2019-01-15,03:37:35,-0.86,-4.91,8.559999000000001,-0.01,-0.09999999400000001,-0.04,-0.01,-0.09999999400000001,-0.04,3,Lying,4
2019-01-15,03:37:35,-0.86,-4.91,8.559999000000001,0.02,-0.06,0.0,0.02,-0.06,0.0,3,Lying,4
2019-01-15,03:37:35,-0.84000003,-4.7999997,8.44,0.02,-0.06,0.0,0.02,-0.06,0.0,3,Lying,4
2019-01-15,03:37:35,-0.84000003,-4.7999997,8.44,0.049999997000000004,-0.049999997000000004,0.01,0.049999997000000004,-0.049999997000000004,0.01,3,Lying,4
2019-01-15,03:37:35,-0.59000003,-4.79,8.509999,0.049999997000000004,-0.049999997000000004,0.01,0.049999997000000004,-0.049999997000000004,0.01,3,Lying,4
2019-01-15,03:37:35,-0.59000003,-4.79,8.509999,0.03,-0.09999999400000001,0.0,0.03,-0.09999999400000001,0.0,3,Lying,4
2019-01-15,03:37:35,-0.35,-4.7,8.46,0.03,-0.09999999400000001,0.0,0.03,-0.09999999400000001,0.0,3,Lying,4
2019-01-15,03:37:35,-0.35,-4.7,8.46,0.02,-0.07,0.02,0.02,-0.07,0.02,3,Lying,4
2019-01-15,03:37:35,-0.65000004,-4.8199997,8.509999,0.02,-0.07,0.02,0.02,-0.07,0.02,3,Lying,4
2019-01-15,03:37:35,-0.65000004,-4.8199997,8.509999,0.0,0.03,0.0,0.0,0.03,0.0,3,Lying,4
2019-01-15,03:37:35,-0.95,-4.75,8.46,0.01,0.07,0.0,0.01,0.07,0.0,3,Lying,4
2019-01-15,03:37:35,-0.95,-4.75,8.46,0.01,0.07,0.0,0.01,0.07,0.0,3,Lying,4
2019-01-15,03:37:35,-1.1,-4.7999997,8.5,0.01,0.07,0.0,0.01,0.07,0.0,3,Lying,4
2019-01-15,03:37:35,-1.1,-4.7999997,8.5,0.0,0.08,0.0,0.0,0.08,0.0,3,Lying,4
2019-01-15,03:37:35,-1.17,-4.74,8.49,0.0,0.08,0.0,0.0,0.08,0.0,3,Lying,4
2019-01-15,03:37:35,-1.17,-4.74,8.49,0.03,-0.01,-0.06,0.03,-0.01,-0.06,3,Lying,4
2019-01-15,03:37:35,-1.19,-4.73,8.48,0.03,-0.01,-0.06,0.03,-0.01,-0.06,3,Lying,4
2019-01-15,03:37:35,-1.19,-4.73,8.48,0.02,-0.03,-0.06,0.02,-0.03,-0.06,3,Lying,4
2019-01-15,03:37:35,-1.1,-4.8199997,8.49,0.02,-0.03,-0.06,0.02,-0.03,-0.06,3,Lying,4
2019-01-15,03:37:35,-1.1,-4.8199997,8.49,0.02,-0.06,-0.06,0.02,-0.06,-0.06,3,Lying,4
2019-01-15,03:37:35,-0.94,-4.7,8.519999499999999,0.02,-0.06,-0.06,0.02,-0.06,-0.06,3,Lying,4
2019-01-15,03:37:36,-0.94,-4.7,8.519999499999999,0.03,-0.04,-0.01,0.03,-0.04,-0.01,3,Lying,4
2019-01-15,03:37:36,-0.84000003,-4.56,8.44,0.03,-0.04,-0.01,0.03,-0.04,-0.01,3,Lying,4
2019-01-15,03:37:36,-0.84000003,-4.56,8.44,0.04,-0.09999999400000001,-0.04,0.04,-0.09999999400000001,-0.04,3,Lying,4
2019-01-15,03:37:36,-0.55,-4.62,8.469999000000001,0.04,-0.09999999400000001,-0.04,0.04,-0.09999999400000001,-0.04,3,Lying,4
2019-01-15,03:37:36,-0.55,-4.62,8.469999000000001,0.0,-0.19999999,-0.04,0.0,-0.19999999,-0.04,3,Lying,4
2019-01-15,03:37:36,-0.36999997,-4.7999997,8.559999000000001,0.0,-0.19999999,-0.04,0.0,-0.19999999,-0.04,3,Lying,4
2019-01-15,03:37:36,-0.36999997,-4.7999997,8.559999000000001,-0.04,-0.17999999,-0.02,-0.04,-0.17999999,-0.02,3,Lying,4
2019-01-15,03:37:36,-0.16999999,-5.0099998,8.549999,-0.04,-0.17999999,-0.02,-0.04,-0.17999999,-0.02,3,Lying,4
2019-01-15,03:37:36,-0.16999999,-5.0099998,8.549999,-0.04,-0.12,0.0,-0.04,-0.12,0.0,3,Lying,4
2019-01-15,03:37:36,-0.09999999400000001,-4.88,8.469999000000001,-0.04,-0.12,0.0,-0.04,-0.12,0.0,3,Lying,4
2019-01-15,03:37:36,-0.09999999400000001,-4.88,8.469999000000001,0.01,-0.03,0.0,0.01,-0.03,0.0,3,Lying,4
2019-01-15,03:37:36,-0.49999997,-4.99,8.61,0.01,-0.03,0.0,0.01,-0.03,0.0,3,Lying,4
2019-01-15,03:37:36,-0.49999997,-4.99,8.61,0.01,0.09999999400000001,-0.01,0.01,0.09999999400000001,-0.01,3,Lying,4
2019-01-15,03:37:36,-0.83,-4.7999997,8.57,0.01,0.09999999400000001,-0.01,0.01,0.09999999400000001,-0.01,3,Lying,4
2019-01-15,03:37:36,-0.83,-4.7999997,8.57,0.06,0.14,0.0,0.06,0.14,0.0,3,Lying,4
2019-01-15,03:37:36,-0.58000004,-4.5699997,8.53,0.06,0.14,0.0,0.06,0.14,0.0,3,Lying,4
2019-01-15,03:37:36,-0.58000004,-4.5699997,8.53,0.089999996,0.13,0.02,0.089999996,0.13,0.02,3,Lying,4
2019-01-15,03:37:36,-0.97,-4.58,8.54,0.089999996,0.13,0.02,0.089999996,0.13,0.02,3,Lying,4
2019-01-15,03:37:36,-0.97,-4.58,8.54,0.07,0.08,-0.02,0.07,0.08,-0.02,3,Lying,4
2019-01-15,03:37:36,-0.97,-4.5499997,8.679999,0.07,0.08,-0.02,0.07,0.08,-0.02,3,Lying,4
2019-01-15,03:37:36,-0.97,-4.5499997,8.679999,0.089999996,0.08,0.02,0.089999996,0.08,0.02,3,Lying,4
2019-01-15,03:37:36,-1.04,-4.33,8.41,0.089999996,0.08,0.02,0.089999996,0.08,0.02,3,Lying,4
2019-01-15,03:37:36,-1.04,-4.33,8.41,0.09999999400000001,0.11,0.049999997000000004,0.09999999400000001,0.11,0.049999997000000004,3,Lying,4
2019-01-15,03:37:36,-1.17,-4.37,8.549999,0.09999999400000001,0.11,0.049999997000000004,0.09999999400000001,0.11,0.049999997000000004,3,Lying,4
2019-01-15,03:37:36,-1.17,-4.37,8.549999,0.049999997000000004,0.03,0.03,0.049999997000000004,0.03,0.03,3,Lying,4
2019-01-15,03:37:36,-1.14,-4.5299997,8.79,0.049999997000000004,0.03,0.03,0.049999997000000004,0.03,0.03,3,Lying,4
2019-01-15,03:37:36,-1.14,-4.5299997,8.79,0.02,0.03,0.049999997000000004,0.02,0.03,0.049999997000000004,3,Lying,4
2019-01-15,03:37:36,-1.52,-4.72,8.69,0.02,0.03,0.049999997000000004,0.02,0.03,0.049999997000000004,3,Lying,4
2019-01-15,03:37:36,-1.52,-4.72,8.69,0.02,0.089999996,0.089999996,0.02,0.089999996,0.089999996,3,Lying,4
2019-01-15,03:37:36,-1.32,-4.54,8.429999,0.02,0.089999996,0.089999996,0.02,0.089999996,0.089999996,3,Lying,4
2019-01-15,03:37:36,-1.32,-4.54,8.429999,0.07,0.0,0.11,0.07,0.0,0.11,3,Lying,4
2019-01-15,03:37:36,-0.93,-4.51,8.58,0.07,0.0,0.11,0.07,0.0,0.11,3,Lying,4
2019-01-15,03:37:36,-0.93,-4.51,8.58,0.04,-0.16,0.089999996,0.04,-0.16,0.089999996,3,Lying,4
2019-01-15,03:37:36,-0.64,-4.45,8.469999000000001,0.04,-0.16,0.089999996,0.04,-0.16,0.089999996,3,Lying,4
2019-01-15,03:37:36,-0.64,-4.45,8.469999000000001,0.04,-0.21,0.02,0.04,-0.21,0.02,3,Lying,4
2019-01-15,03:37:36,-0.34,-4.27,8.57,0.04,-0.21,0.02,0.04,-0.21,0.02,3,Lying,4
2019-01-15,03:37:36,-0.34,-4.27,8.57,0.01,-0.19,-0.01,0.01,-0.19,-0.01,3,Lying,4
2019-01-15,03:37:36,-0.31,-4.08,8.67,0.01,-0.19,-0.01,0.01,-0.19,-0.01,3,Lying,4
2019-01-15,03:37:36,-0.31,-4.08,8.67,0.0,-0.17999999,-0.04,0.0,-0.17999999,-0.04,3,Lying,4
2019-01-15,03:37:36,-0.39999998,-4.25,8.75,0.0,-0.17999999,-0.04,0.0,-0.17999999,-0.04,3,Lying,4
2019-01-15,03:37:36,-0.39999998,-4.25,8.75,-0.03,-0.14999999,-0.04,-0.03,-0.14999999,-0.04,3,Lying,4
2019-01-15,03:37:36,-0.56,-4.63,8.679999,-0.03,-0.14999999,-0.04,-0.03,-0.14999999,-0.04,3,Lying,4
2019-01-15,03:37:36,-0.56,-4.63,8.679999,-0.08,-0.08,0.0,-0.08,-0.08,0.0,3,Lying,4
2019-01-15,03:37:36,-0.65000004,-4.66,8.49,-0.08,-0.08,0.0,-0.08,-0.08,0.0,3,Lying,4
2019-01-15,03:37:36,-0.65000004,-4.66,8.49,-0.049999997000000004,0.02,0.07,-0.049999997000000004,0.02,0.07,3,Lying,4
2019-01-15,03:37:36,-0.68,-4.77,8.7,-0.049999997000000004,0.02,0.07,-0.049999997000000004,0.02,0.07,3,Lying,4
2019-01-15,03:37:36,-0.68,-4.77,8.7,-0.06,0.03,0.08,-0.06,0.03,0.08,3,Lying,4
2019-01-15,03:37:37,-0.87,-4.7599998,8.66,-0.06,0.03,0.08,-0.06,0.03,0.08,3,Lying,4
2019-01-15,03:37:37,-0.87,-4.7599998,8.66,0.0,-0.02,0.02,0.0,-0.02,0.02,3,Lying,4
2019-01-15,03:37:37,-0.95,-4.69,8.53,0.0,-0.02,0.02,0.0,-0.02,0.02,3,Lying,4
2019-01-15,03:37:37,-0.95,-4.69,8.53,0.01,-0.04,0.04,0.01,-0.04,0.04,3,Lying,4
2019-01-15,03:37:37,-0.51,-4.5299997,8.5,0.02,-0.09999999400000001,0.049999997000000004,0.02,-0.09999999400000001,0.049999997000000004,3,Lying,4
2019-01-15,03:37:37,-0.51,-4.5299997,8.5,0.02,-0.09999999400000001,0.049999997000000004,0.02,-0.09999999400000001,0.049999997000000004,3,Lying,4
2019-01-15,03:37:37,-0.32999998,-4.54,8.519999499999999,0.02,-0.09999999400000001,0.049999997000000004,0.02,-0.09999999400000001,0.049999997000000004,3,Lying,4
2019-01-15,03:37:37,-0.32999998,-4.54,8.519999499999999,0.03,-0.19,0.06,0.03,-0.19,0.06,3,Lying,4
2019-01-15,03:37:37,0.049999997000000004,-4.46,8.599999,0.03,-0.19,0.06,0.03,-0.19,0.06,3,Lying,4
2019-01-15,03:37:37,0.049999997000000004,-4.46,8.599999,0.0,-0.22,0.03,0.0,-0.22,0.03,3,Lying,4
2019-01-15,03:37:37,0.02,-4.64,8.61,0.0,-0.22,0.03,0.0,-0.22,0.03,3,Lying,4
2019-01-15,03:37:37,0.02,-4.64,8.61,-0.04,-0.089999996,0.02,-0.04,-0.089999996,0.02,3,Lying,4
2019-01-15,03:37:37,-0.13,-4.69,8.57,-0.04,-0.089999996,0.02,-0.04,-0.089999996,0.02,3,Lying,4
2019-01-15,03:37:37,-0.13,-4.69,8.57,-0.01,0.0,0.04,-0.01,0.0,0.04,3,Lying,4
2019-01-15,03:37:37,-0.23999998,-4.52,8.53,-0.01,0.0,0.04,-0.01,0.0,0.04,3,Lying,4
2019-01-15,03:37:37,-0.23999998,-4.52,8.53,0.0,0.089999996,0.089999996,0.0,0.089999996,0.089999996,3,Lying,4
2019-01-15,03:37:37,-0.42,-4.5299997,8.61,0.0,0.089999996,0.089999996,0.0,0.089999996,0.089999996,3,Lying,4
2019-01-15,03:37:37,-0.42,-4.5299997,8.61,0.0,0.11,0.049999997000000004,0.0,0.11,0.049999997000000004,3,Lying,4
2019-01-15,03:37:37,-0.59000003,-4.5299997,8.57,0.0,0.11,0.049999997000000004,0.0,0.11,0.049999997000000004,3,Lying,4
2019-01-15,03:37:37,-0.59000003,-4.5299997,8.57,-0.01,0.11,0.03,-0.01,0.11,0.03,3,Lying,4
2019-01-15,03:37:37,-0.45,-4.7,8.629999,-0.01,0.11,0.03,-0.01,0.11,0.03,3,Lying,4
2019-01-15,03:37:37,-0.45,-4.7,8.629999,-0.02,0.02,0.04,-0.02,0.02,0.04,3,Lying,4
2019-01-15,03:37:37,-0.49999997,-4.62,8.7,-0.02,0.02,0.04,-0.02,0.02,0.04,3,Lying,4
2019-01-15,03:37:37,-0.49999997,-4.62,8.7,-0.01,0.03,0.02,-0.01,0.03,0.02,3,Lying,4
2019-01-15,03:37:37,-0.49999997,-4.56,8.66,-0.01,0.03,0.02,-0.01,0.03,0.02,3,Lying,4
2019-01-15,03:37:37,-0.49999997,-4.56,8.66,0.0,0.07,0.04,0.0,0.07,0.04,3,Lying,4
2019-01-15,03:37:37,-0.74,-4.5,8.58,0.0,0.07,0.04,0.0,0.07,0.04,3,Lying,4
2019-01-15,03:37:37,-0.74,-4.5,8.58,0.01,0.19999999,0.08,0.01,0.19999999,0.08,3,Lying,4
2019-01-15,03:37:37,-0.93,-4.51,8.58,0.01,0.19999999,0.08,0.01,0.19999999,0.08,3,Lying,4
2019-01-15,03:37:37,-0.93,-4.51,8.58,-0.01,0.21,0.089999996,-0.01,0.21,0.089999996,3,Lying,4
2019-01-15,03:37:37,-1.02,-4.56,8.549999,-0.01,0.21,0.089999996,-0.01,0.21,0.089999996,3,Lying,4
2019-01-15,03:37:37,-1.02,-4.56,8.549999,-0.01,0.09999999400000001,0.03,-0.01,0.09999999400000001,0.03,3,Lying,4
2019-01-15,03:37:37,-1.12,-4.52,8.49,-0.01,0.09999999400000001,0.03,-0.01,0.09999999400000001,0.03,3,Lying,4
2019-01-15,03:37:37,-1.12,-4.52,8.49,-0.02,0.08,0.04,-0.02,0.08,0.04,3,Lying,4
2019-01-15,03:37:37,-1.11,-4.64,8.48,-0.02,0.08,0.04,-0.02,0.08,0.04,3,Lying,4
2019-01-15,03:37:37,-1.11,-4.64,8.48,-0.02,0.02,0.049999997000000004,-0.02,0.02,0.049999997000000004,3,Lying,4
2019-01-15,03:37:37,-0.77,-4.67,8.599999,-0.02,0.02,0.049999997000000004,-0.02,0.02,0.049999997000000004,3,Lying,4
2019-01-15,03:37:37,-0.77,-4.67,8.599999,-0.02,-0.11,0.02,-0.02,-0.11,0.02,3,Lying,4
2019-01-15,03:37:37,-0.53000003,-4.62,8.509999,-0.02,-0.11,0.02,-0.02,-0.11,0.02,3,Lying,4
2019-01-15,03:37:37,-0.53000003,-4.62,8.509999,-0.01,-0.11,0.02,-0.01,-0.11,0.02,3,Lying,4
2019-01-15,03:37:37,-0.54,-4.81,8.45,-0.01,-0.11,0.02,-0.01,-0.11,0.02,3,Lying,4
2019-01-15,03:37:37,-0.54,-4.81,8.45,-0.02,-0.06,0.0,-0.02,-0.06,0.0,3,Lying,4
2019-01-15,03:37:37,-0.29999998,-4.7,8.629999,-0.02,-0.06,0.0,-0.02,-0.06,0.0,3,Lying,4
2019-01-15,03:37:37,-0.29999998,-4.7,8.629999,0.0,-0.02,0.0,0.0,-0.02,0.0,3,Lying,4
2019-01-15,03:37:37,-0.76,-4.64,8.519999499999999,0.0,-0.02,0.0,0.0,-0.02,0.0,3,Lying,4
2019-01-15,03:37:37,-0.76,-4.64,8.519999499999999,0.0,0.09999999400000001,0.0,0.0,0.09999999400000001,0.0,3,Lying,4
2019-01-15,03:37:37,-1.0600001000000001,-4.5499997,8.629999,0.0,0.09999999400000001,0.0,0.0,0.09999999400000001,0.0,3,Lying,4
2019-01-15,03:37:38,-1.0600001000000001,-4.5499997,8.629999,0.01,0.04,0.01,0.01,0.04,0.01,3,Lying,4
2019-01-15,03:37:38,-0.85,-4.5,8.48,0.01,0.04,0.01,0.01,0.04,0.01,3,Lying,4
2019-01-15,03:37:38,-0.85,-4.5,8.48,0.01,0.0,0.02,0.01,0.0,0.02,3,Lying,4
2019-01-15,03:37:38,-0.79,-4.79,8.599999,0.01,0.0,0.02,0.01,0.0,0.02,3,Lying,4
2019-01-15,03:37:38,-0.79,-4.79,8.599999,-0.03,0.0,0.02,-0.03,0.0,0.02,3,Lying,4
2019-01-15,03:37:38,-0.93,-4.56,8.519999499999999,-0.03,0.0,0.02,-0.03,0.0,0.02,3,Lying,4
2019-01-15,03:37:38,-0.93,-4.56,8.519999499999999,0.03,0.03,0.0,0.03,0.03,0.0,3,Lying,4
2019-01-15,03:37:38,-1.04,-4.52,8.45,0.03,0.03,0.0,0.03,0.03,0.0,3,Lying,4
2019-01-15,03:37:38,-1.04,-4.52,8.45,0.01,0.02,0.0,0.01,0.02,0.0,3,Lying,4
2019-01-15,03:37:38,-0.99,-4.66,8.5,0.01,0.02,0.0,0.01,0.02,0.0,3,Lying,4
2019-01-15,03:37:38,-0.99,-4.66,8.5,-0.01,-0.02,-0.01,-0.01,-0.02,-0.01,3,Lying,4
2019-01-15,03:37:38,-0.79,-4.58,8.509999,-0.01,-0.02,-0.01,-0.01,-0.02,-0.01,3,Lying,4
2019-01-15,03:37:38,-0.79,-4.58,8.509999,0.0,-0.04,0.0,0.0,-0.04,0.0,3,Lying,4
2019-01-15,03:37:38,-0.87,-4.68,8.54,0.0,-0.04,0.0,0.0,-0.04,0.0,3,Lying,4
2019-01-15,03:37:38,-0.87,-4.68,8.54,0.0,-0.01,-0.01,0.0,-0.01,-0.01,3,Lying,4
2019-01-15,03:37:38,-0.79,-4.67,8.58,0.0,-0.01,-0.01,0.0,-0.01,-0.01,3,Lying,4
2019-01-15,03:37:38,-0.79,-4.67,8.58,0.0,-0.02,-0.01,0.0,-0.02,-0.01,3,Lying,4
2019-01-15,03:37:38,-0.73,-4.6,8.54,0.0,-0.02,-0.01,0.0,-0.02,-0.01,3,Lying,4
2019-01-15,03:37:38,-0.73,-4.6,8.54,0.0,-0.02,-0.01,0.0,-0.02,-0.01,3,Lying,4
2019-01-15,03:37:38,-0.85,-4.67,8.509999,0.0,-0.02,-0.01,0.0,-0.02,-0.01,3,Lying,4
2019-01-15,03:37:38,-0.85,-4.67,8.509999,0.0,0.01,-0.01,0.0,0.01,-0.01,3,Lying,4
2019-01-15,03:37:38,-0.99,-4.65,8.53,0.0,0.01,-0.01,0.0,0.01,-0.01,3,Lying,4
2019-01-15,03:37:38,-0.99,-4.65,8.53,0.0,0.049999997000000004,0.0,0.0,0.049999997000000004,0.0,3,Lying,4
2019-01-15,03:37:38,-1.04,-4.58,8.469999000000001,0.0,0.049999997000000004,0.0,0.0,0.049999997000000004,0.0,3,Lying,4
2019-01-15,03:37:38,-1.04,-4.58,8.469999000000001,0.0,0.01,0.01,0.0,0.01,0.01,3,Lying,4
2019-01-15,03:37:38,-0.75,-4.68,8.549999,0.0,0.01,0.01,0.0,0.01,0.01,3,Lying,4
2019-01-15,03:37:38,-0.75,-4.68,8.549999,-0.01,-0.07,0.0,-0.01,-0.07,0.0,3,Lying,4
2019-01-15,03:37:38,-0.76,-4.72,8.61,-0.01,-0.07,0.0,-0.01,-0.07,0.0,3,Lying,4
2019-01-15,03:37:38,-0.76,-4.72,8.61,-0.01,-0.049999997000000004,0.0,-0.01,-0.049999997000000004,0.0,3,Lying,4
2019-01-15,03:37:38,-0.8,-4.71,8.519999499999999,-0.01,-0.049999997000000004,0.0,-0.01,-0.049999997000000004,0.0,3,Lying,4
2019-01-15,03:37:38,-0.8,-4.71,8.519999499999999,0.0,0.0,0.0,0.0,0.0,0.0,3,Lying,4
2019-01-15,03:37:38,-0.86,-4.7,8.519999499999999,0.0,0.0,0.0,0.0,0.0,0.0,3,Lying,4
2019-01-15,03:37:38,-0.86,-4.7,8.519999499999999,0.0,0.0,0.0,0.0,0.0,0.0,3,Lying,4
2019-01-15,03:37:38,-0.84000003,-4.68,8.54,0.0,0.0,0.0,0.0,0.0,0.0,3,Lying,4
2019-01-15,03:37:38,-0.84000003,-4.68,8.54,0.01,-0.03,0.0,0.01,-0.03,0.0,3,Lying,4
2019-01-15,03:37:38,-0.73,-4.5699997,8.49,0.01,-0.03,0.0,0.01,-0.03,0.0,3,Lying,4
2019-01-15,03:37:38,-0.73,-4.5699997,8.49,0.01,-0.03,0.0,0.01,-0.03,0.0,3,Lying,4
2019-01-15,03:37:38,-0.65000004,-4.64,8.549999,0.01,-0.03,0.0,0.01,-0.03,0.0,3,Lying,4
2019-01-15,03:37:38,-0.65000004,-4.64,8.549999,-0.01,-0.03,0.0,-0.01,-0.03,0.0,3,Lying,4
2019-01-15,03:37:38,-0.63,-4.67,8.53,-0.01,-0.03,0.0,-0.01,-0.03,0.0,3,Lying,4
2019-01-15,03:37:38,-0.63,-4.67,8.53,-0.01,-0.03,-0.01,-0.01,-0.03,-0.01,3,Lying,4
2019-01-15,03:37:38,-0.64,-4.73,8.57,-0.01,-0.03,-0.01,-0.01,-0.03,-0.01,3,Lying,4
2019-01-15,03:37:38,-0.64,-4.73,8.57,-0.02,-0.01,-0.02,-0.02,-0.01,-0.02,3,Lying,4
2019-01-15,03:37:38,-0.71000004,-4.73,8.54,-0.02,-0.01,-0.02,-0.02,-0.01,-0.02,3,Lying,4
2019-01-15,03:37:38,-0.71000004,-4.73,8.54,-0.02,0.0,-0.02,-0.02,0.0,-0.02,3,Lying,4
2019-01-15,03:37:39,-0.71000004,-4.77,8.509999,-0.02,0.0,-0.02,-0.02,0.0,-0.02,3,Lying,4
2019-01-15,03:37:39,-0.71000004,-4.77,8.509999,-0.01,-0.01,-0.03,-0.01,-0.01,-0.03,3,Lying,4
2019-01-15,03:37:39,-0.67,-4.8199997,8.57,-0.01,-0.01,-0.03,-0.01,-0.01,-0.03,3,Lying,4
2019-01-15,03:37:39,-0.67,-4.8199997,8.57,-0.02,-0.01,-0.03,-0.02,-0.01,-0.03,3,Lying,4
2019-01-15,03:37:39,-0.72,-4.73,8.61,-0.02,-0.01,-0.03,-0.02,-0.01,-0.03,3,Lying,4
2019-01-15,03:37:39,-0.72,-4.73,8.61,0.0,0.02,-0.02,0.0,0.02,-0.02,3,Lying,4
2019-01-15,03:37:39,-0.86,-4.73,8.599999,0.0,0.02,-0.02,0.0,0.02,-0.02,3,Lying,4
2019-01-15,03:37:39,-0.86,-4.73,8.599999,0.0,0.049999997000000004,-0.01,0.0,0.049999997000000004,-0.01,3,Lying,4
2019-01-15,03:37:39,-0.90000004,-4.66,8.45,0.0,0.049999997000000004,-0.01,0.0,0.049999997000000004,-0.01,3,Lying,4
2019-01-15,03:37:39,-0.90000004,-4.66,8.45,0.0,0.049999997000000004,-0.01,0.0,0.049999997000000004,-0.01,3,Lying,4
2019-01-15,03:37:39,-0.98,-4.72,8.54,0.0,0.049999997000000004,-0.01,0.0,0.049999997000000004,-0.01,3,Lying,4
2019-01-15,03:37:39,-0.98,-4.72,8.54,0.0,0.049999997000000004,-0.01,0.0,0.049999997000000004,-0.01,3,Lying,4
2019-01-15,03:37:39,-0.82,-4.67,8.519999499999999,0.0,0.049999997000000004,-0.01,0.0,0.049999997000000004,-0.01,3,Lying,4
2019-01-15,03:37:39,-0.82,-4.67,8.519999499999999,0.0,0.0,0.0,0.0,0.0,0.0,3,Lying,4
2019-01-15,03:37:39,-0.96,-4.7599998,8.49,0.0,0.0,0.0,0.0,0.0,0.0,3,Lying,4
2019-01-15,03:37:39,-0.96,-4.7599998,8.49,0.0,0.0,0.0,0.0,0.0,0.0,3,Lying,4
2019-01-15,03:37:39,-0.92,-4.77,8.519999499999999,0.0,0.0,0.0,0.0,0.0,0.0,3,Lying,4
2019-01-15,03:37:39,-0.92,-4.77,8.519999499999999,0.0,-0.01,0.0,0.0,-0.01,0.0,3,Lying,4
2019-01-15,03:37:39,-0.73,-4.7,8.54,0.0,-0.01,0.0,0.0,-0.01,0.0,3,Lying,4
2019-01-15,03:37:39,-0.73,-4.7,8.54,0.0,-0.03,0.0,0.0,-0.03,0.0,3,Lying,4
2019-01-15,03:37:39,-0.74,-4.7799997,8.46,0.0,-0.03,0.0,0.0,-0.03,0.0,3,Lying,4
2019-01-15,03:37:39,-0.74,-4.7799997,8.46,0.0,-0.03,-0.01,0.0,-0.03,-0.01,3,Lying,4
2019-01-15,03:37:39,-0.7,-4.81,8.58,0.0,-0.03,-0.01,0.0,-0.03,-0.01,3,Lying,4
2019-01-15,03:37:39,-0.7,-4.81,8.58,-0.01,-0.02,0.0,-0.01,-0.02,0.0,3,Lying,4
2019-01-15,03:37:39,-0.88,-4.74,8.5,-0.01,-0.02,0.0,-0.01,-0.02,0.0,3,Lying,4
2019-01-15,03:37:39,-0.88,-4.74,8.5,0.0,0.02,0.0,0.0,0.02,0.0,3,Lying,4
2019-01-15,03:37:39,-0.95,-4.79,8.48,0.0,0.02,0.0,0.0,0.02,0.0,3,Lying,4
2019-01-15,03:37:39,-0.95,-4.79,8.48,0.0,0.0,0.0,0.0,0.0,0.0,3,Lying,4
2019-01-15,03:37:39,-0.69,-4.74,8.5,0.0,0.0,0.0,0.0,0.0,0.0,3,Lying,4
2019-01-15,03:37:39,-0.69,-4.74,8.5,0.0,-0.04,0.0,0.0,-0.04,0.0,3,Lying,4
2019-01-15,03:37:39,-0.66,-4.74,8.509999,0.0,-0.04,0.0,0.0,-0.04,0.0,3,Lying,4
2019-01-15,03:37:39,-0.66,-4.74,8.509999,0.0,-0.02,0.0,0.0,-0.02,0.0,3,Lying,4
2019-01-15,03:37:39,-0.79,-4.7999997,8.53,0.0,-0.02,0.0,0.0,-0.02,0.0,3,Lying,4
2019-01-15,03:37:39,-0.79,-4.7999997,8.53,-0.01,0.0,0.0,-0.01,0.0,0.0,3,Lying,4
2019-01-15,03:37:39,-0.78000003,-4.8199997,8.519999499999999,-0.01,0.0,0.0,-0.01,0.0,0.0,3,Lying,4
2019-01-15,03:37:39,-0.78000003,-4.8199997,8.519999499999999,0.0,0.0,0.0,0.0,0.0,0.0,3,Lying,4
2019-01-15,03:37:39,-0.82,-4.79,8.49,0.0,0.0,0.0,0.0,0.0,0.0,3,Lying,4
2019-01-15,03:37:39,-0.82,-4.79,8.49,0.0,0.0,0.0,0.0,0.0,0.0,3,Lying,4
2019-01-15,03:37:39,-0.7,-4.85,8.53,0.0,0.0,0.0,0.0,0.0,0.0,3,Lying,4
2019-01-15,03:37:39,-0.7,-4.85,8.53,0.0,-0.01,0.0,0.0,-0.01,0.0,3,Lying,4
2019-01-15,03:37:39,-0.71000004,-4.81,8.5,0.0,-0.01,0.0,0.0,-0.01,0.0,3,Lying,4
2019-01-15,03:37:39,-0.71000004,-4.81,8.5,0.0,0.0,0.0,0.0,0.0,0.0,3,Lying,4
2019-01-15,03:37:39,-0.67,-4.72,8.469999000000001,0.01,0.0,0.01,0.01,0.0,0.01,3,Lying,4
2019-01-15,03:37:39,-0.67,-4.72,8.469999000000001,0.01,0.0,0.01,0.01,0.0,0.01,3,Lying,4
2019-01-15,03:37:39,-0.8,-4.75,8.46,0.01,0.0,0.01,0.01,0.0,0.01,3,Lying,4
2019-01-15,03:37:39,-0.8,-4.75,8.46,0.01,0.03,0.0,0.01,0.03,0.0,3,Lying,4
2019-01-15,03:37:40,-0.83,-4.77,8.45,0.01,0.03,0.0,0.01,0.03,0.0,3,Lying,4
2019-01-15,03:37:40,-0.83,-4.77,8.45,0.0,0.01,0.0,0.0,0.01,0.0,3,Lying,4
2019-01-15,03:37:40,-0.72,-4.73,8.5,0.0,0.01,0.0,0.0,0.01,0.0,3,Lying,4
2019-01-15,03:37:40,-0.72,-4.73,8.5,0.0,0.0,0.0,0.0,0.0,0.0,3,Lying,4
2019-01-15,03:37:40,-0.84000003,-4.7799997,8.5,0.0,0.0,0.0,0.0,0.0,0.0,3,Lying,4
2019-01-15,03:37:40,-0.84000003,-4.7799997,8.5,0.0,0.02,0.0,0.0,0.02,0.0,3,Lying,4
2019-01-15,03:37:40,-0.90000004,-4.75,8.49,0.0,0.02,0.0,0.0,0.02,0.0,3,Lying,4
2019-01-15,03:37:40,-0.90000004,-4.75,8.49,0.0,0.03,0.0,0.0,0.03,0.0,3,Lying,4
2019-01-15,03:37:40,-0.86,-4.88,8.5,0.0,0.03,0.0,0.0,0.03,0.0,3,Lying,4
2019-01-15,03:37:40,-0.86,-4.88,8.5,0.0,0.02,0.0,0.0,0.02,0.0,3,Lying,4
2019-01-15,03:37:40,-0.86,-4.7599998,8.469999000000001,0.0,0.02,0.0,0.0,0.02,0.0,3,Lying,4
2019-01-15,03:37:40,-0.86,-4.7599998,8.469999000000001,0.0,0.03,0.0,0.0,0.03,0.0,3,Lying,4
2019-01-15,03:37:40,-0.97,-4.69,8.429999,0.0,0.03,0.0,0.0,0.03,0.0,3,Lying,4
2019-01-15,03:37:40,-0.97,-4.69,8.429999,0.0,0.01,0.0,0.0,0.01,0.0,3,Lying,4
2019-01-15,03:37:40,-0.90000004,-4.74,8.469999000000001,0.0,0.01,0.0,0.0,0.01,0.0,3,Lying,4
2019-01-15,03:37:40,-0.90000004,-4.74,8.469999000000001,0.0,-0.04,0.0,0.0,-0.04,0.0,3,Lying,4
2019-01-15,03:37:40,-0.6,-4.7999997,8.54,-0.01,-0.07,0.0,-0.01,-0.07,0.0,3,Lying,4
2019-01-15,03:37:40,-0.6,-4.7999997,8.54,-0.01,-0.07,0.0,-0.01,-0.07,0.0,3,Lying,4
2019-01-15,03:37:40,-0.75,-4.94,8.559999000000001,-0.01,-0.07,0.0,-0.01,-0.07,0.0,3,Lying,4
2019-01-15,03:37:40,-0.75,-4.94,8.559999000000001,0.0,0.0,0.01,0.0,0.0,0.01,3,Lying,4
2019-01-15,03:37:40,-0.71000004,-4.7799997,8.42,0.0,0.0,0.01,0.0,0.0,0.01,3,Lying,4
2019-01-15,03:37:40,-0.71000004,-4.7799997,8.42,0.03,0.02,0.02,0.03,0.02,0.02,3,Lying,4
2019-01-15,03:37:40,-0.82,-4.71,8.509999,0.03,0.02,0.02,0.03,0.02,0.02,3,Lying,4
2019-01-15,03:37:40,-0.82,-4.71,8.509999,0.01,0.049999997000000004,0.02,0.01,0.049999997000000004,0.02,3,Lying,4
2019-01-15,03:37:40,-1.1,-4.77,8.49,0.01,0.049999997000000004,0.02,0.01,0.049999997000000004,0.02,3,Lying,4
2019-01-15,03:37:40,-1.1,-4.77,8.49,0.01,0.04,0.01,0.01,0.04,0.01,3,Lying,4
2019-01-15,03:37:40,-0.87,-4.73,8.49,0.01,0.04,0.01,0.01,0.04,0.01,3,Lying,4
2019-01-15,03:37:40,-0.87,-4.73,8.49,0.0,-0.02,0.01,0.0,-0.02,0.01,3,Lying,4
2019-01-15,03:37:40,-0.89,-4.72,8.48,0.0,-0.02,0.01,0.0,-0.02,0.01,3,Lying,4
2019-01-15,03:37:40,-0.89,-4.72,8.48,0.0,-0.02,0.0,0.0,-0.02,0.0,3,Lying,4
2019-01-15,03:37:40,-0.88,-4.79,8.53,0.0,-0.02,0.0,0.0,-0.02,0.0,3,Lying,4
2019-01-15,03:37:40,-0.88,-4.79,8.53,0.0,-0.02,0.0,0.0,-0.02,0.0,3,Lying,4
2019-01-15,03:37:40,-0.79,-4.79,8.49,0.0,-0.02,0.0,0.0,-0.02,0.0,3,Lying,4
2019-01-15,03:37:40,-0.79,-4.79,8.49,0.0,-0.02,0.0,0.0,-0.02,0.0,3,Lying,4
2019-01-15,03:37:40,-0.77,-4.7799997,8.519999499999999,0.0,-0.02,0.0,0.0,-0.02,0.0,3,Lying,4
2019-01-15,03:37:40,-0.77,-4.7799997,8.519999499999999,0.0,-0.02,0.0,0.0,-0.02,0.0,3,Lying,4
2019-01-15,03:37:40,-0.71000004,-4.7799997,8.48,0.0,-0.02,0.0,0.0,-0.02,0.0,3,Lying,4
2019-01-15,03:37:40,-0.71000004,-4.7799997,8.48,0.0,-0.02,0.0,0.0,-0.02,0.0,3,Lying,4
2019-01-15,03:37:40,-0.79,-4.85,8.54,0.0,-0.02,0.0,0.0,-0.02,0.0,3,Lying,4
2019-01-15,03:37:40,-0.79,-4.85,8.54,0.0,0.0,0.0,0.0,0.0,0.0,3,Lying,4
2019-01-15,03:37:40,-0.86,-4.74,8.48,0.0,0.0,0.0,0.0,0.0,0.0,3,Lying,4
2019-01-15,03:37:40,-0.86,-4.74,8.48,0.01,0.02,0.0,0.01,0.02,0.0,3,Lying,4
2019-01-15,03:37:40,-0.96,-4.7599998,8.53,0.01,0.02,0.0,0.01,0.02,0.0,3,Lying,4
2019-01-15,03:37:40,-0.96,-4.7599998,8.53,0.01,0.0,0.0,0.01,0.0,0.0,3,Lying,4
2019-01-15,03:37:40,-0.89,-4.79,8.559999000000001,0.01,0.0,0.0,0.01,0.0,0.0,3,Lying,4
2019-01-15,03:37:40,-0.89,-4.79,8.559999000000001,0.0,-0.02,0.01,0.0,-0.02,0.01,3,Lying,4
2019-01-15,03:37:41,-0.69,-4.7999997,8.54,0.0,-0.02,0.01,0.0,-0.02,0.01,3,Lying,4
2019-01-15,03:37:41,-0.69,-4.7999997,8.54,0.02,-0.02,0.02,0.02,-0.02,0.02,3,Lying,4
2019-01-15,03:37:41,-0.73,-4.7599998,8.54,0.02,-0.02,0.02,0.02,-0.02,0.02,3,Lying,4
2019-01-15,03:37:41,-0.73,-4.7599998,8.54,0.02,0.01,0.01,0.02,0.01,0.01,3,Lying,4
2019-01-15,03:37:41,-0.94,-4.73,8.48,0.02,0.01,0.01,0.02,0.01,0.01,3,Lying,4
2019-01-15,03:37:41,-0.94,-4.73,8.48,0.02,0.02,0.0,0.02,0.02,0.0,3,Lying,4
2019-01-15,03:37:41,-0.86,-4.64,8.5,0.02,0.02,0.0,0.02,0.02,0.0,3,Lying,4
2019-01-15,03:37:41,-0.86,-4.64,8.5,0.02,0.01,0.01,0.02,0.01,0.01,3,Lying,4
2019-01-15,03:37:41,-0.90000004,-4.7,8.53,0.02,0.01,0.01,0.02,0.01,0.01,3,Lying,4
2019-01-15,03:37:41,-0.90000004,-4.7,8.53,0.0,0.0,0.0,0.0,0.0,0.0,3,Lying,4
2019-01-15,03:37:41,-0.87,-4.72,8.54,0.0,-0.01,0.0,0.0,-0.01,0.0,3,Lying,4
2019-01-15,03:37:41,-0.87,-4.72,8.54,0.0,-0.01,0.0,0.0,-0.01,0.0,3,Lying,4
2019-01-15,03:37:41,-0.87,-4.7599998,8.5,0.0,-0.01,0.0,0.0,-0.01,0.0,3,Lying,4
2019-01-15,03:37:41,-0.87,-4.7599998,8.5,0.0,-0.01,0.0,0.0,-0.01,0.0,3,Lying,4
2019-01-15,03:37:41,-0.87,-4.75,8.53,0.0,-0.01,0.0,0.0,-0.01,0.0,3,Lying,4
2019-01-15,03:37:41,-0.87,-4.75,8.53,0.0,-0.02,0.0,0.0,-0.02,0.0,3,Lying,4
2019-01-15,03:37:41,-0.81,-4.79,8.57,0.0,-0.02,0.0,0.0,-0.02,0.0,3,Lying,4
2019-01-15,03:37:41,-0.81,-4.79,8.57,0.02,-0.03,0.0,0.02,-0.03,0.0,3,Lying,4
2019-01-15,03:37:41,-0.76,-4.72,8.48,0.02,-0.03,0.0,0.02,-0.03,0.0,3,Lying,4
2019-01-15,03:37:41,-0.76,-4.72,8.48,0.02,-0.02,0.0,0.02,-0.02,0.0,3,Lying,4
2019-01-15,03:37:41,-0.8,-4.74,8.599999,0.02,-0.02,0.0,0.02,-0.02,0.0,3,Lying,4
2019-01-15,03:37:41,-0.8,-4.74,8.599999,0.0,-0.01,0.0,0.0,-0.01,0.0,3,Lying,4
2019-01-15,03:37:41,-0.71000004,-4.74,8.519999499999999,0.0,-0.01,0.0,0.0,-0.01,0.0,3,Lying,4
2019-01-15,03:37:41,-0.71000004,-4.74,8.519999499999999,0.02,-0.02,0.0,0.02,-0.02,0.0,3,Lying,4
2019-01-15,03:37:41,-0.78000003,-4.67,8.5,0.02,-0.02,0.0,0.02,-0.02,0.0,3,Lying,4
2019-01-15,03:37:41,-0.78000003,-4.67,8.5,0.01,0.0,-0.01,0.01,0.0,-0.01,3,Lying,4
2019-01-15,03:37:41,-0.77,-4.74,8.559999000000001,0.01,0.0,-0.01,0.01,0.0,-0.01,3,Lying,4
2019-01-15,03:37:41,-0.77,-4.74,8.559999000000001,0.0,-0.02,-0.01,0.0,-0.02,-0.01,3,Lying,4
2019-01-15,03:37:41,-0.82,-4.65,8.559999000000001,0.0,-0.02,-0.01,0.0,-0.02,-0.01,3,Lying,4
2019-01-15,03:37:41,-0.82,-4.65,8.559999000000001,0.01,-0.01,-0.01,0.01,-0.01,-0.01,3,Lying,4
2019-01-15,03:37:41,-0.82,-4.58,8.5,0.01,-0.01,-0.01,0.01,-0.01,-0.01,3,Lying,4
2019-01-15,03:37:41,-0.82,-4.58,8.5,0.01,-0.01,-0.01,0.01,-0.01,-0.01,3,Lying,4
2019-01-15,03:37:41,-0.85,-4.71,8.57,0.01,-0.01,-0.01,0.01,-0.01,-0.01,3,Lying,4
2019-01-15,03:37:41,-0.85,-4.71,8.57,0.0,-0.03,-0.01,0.0,-0.03,-0.01,3,Lying,4
2019-01-15,03:37:41,-0.78000003,-4.68,8.54,0.0,-0.03,-0.01,0.0,-0.03,-0.01,3,Lying,4
2019-01-15,03:37:41,-0.78000003,-4.68,8.54,0.0,-0.04,0.0,0.0,-0.04,0.0,3,Lying,4
2019-01-15,03:37:41,-0.7,-4.71,8.519999499999999,0.0,-0.04,0.0,0.0,-0.04,0.0,3,Lying,4
2019-01-15,03:37:41,-0.7,-4.71,8.519999499999999,0.0,-0.03,0.0,0.0,-0.03,0.0,3,Lying,4
2019-01-15,03:37:41,-0.7,-4.67,8.57,0.0,-0.03,0.0,0.0,-0.03,0.0,3,Lying,4
2019-01-15,03:37:41,-0.7,-4.67,8.57,0.0,-0.02,0.0,0.0,-0.02,0.0,3,Lying,4
2019-01-15,03:37:41,-0.67,-4.72,8.57,0.0,-0.02,0.0,0.0,-0.02,0.0,3,Lying,4
2019-01-15,03:37:41,-0.67,-4.72,8.57,0.0,-0.02,0.0,0.0,-0.02,0.0,3,Lying,4
2019-01-15,03:37:41,-0.71000004,-4.7,8.549999,0.0,-0.02,0.0,0.0,-0.02,0.0,3,Lying,4
2019-01-15,03:37:41,-0.71000004,-4.7,8.549999,0.0,0.0,0.0,0.0,0.0,0.0,3,Lying,4
2019-01-15,03:37:42,-0.71000004,-4.65,8.519999499999999,0.0,0.0,0.0,0.0,0.0,0.0,3,Lying,4
2019-01-15,03:37:42,-0.71000004,-4.65,8.519999499999999,0.0,0.0,0.0,0.0,0.0,0.0,3,Lying,4
2019-01-15,03:37:42,-0.75,-4.71,8.58,0.0,0.0,0.0,0.0,0.0,0.0,3,Lying,4
2019-01-15,03:37:42,-0.75,-4.71,8.58,0.0,0.01,0.0,0.0,0.01,0.0,3,Lying,4
2019-01-15,03:37:42,-0.87,-4.73,8.49,0.0,0.01,0.0,0.0,0.01,0.0,3,Lying,4
2019-01-15,03:37:42,-0.87,-4.73,8.49,0.0,0.0,0.0,0.0,0.0,0.0,3,Lying,4
2019-01-15,03:37:42,-0.72,-4.71,8.589999,0.0,0.0,0.0,0.0,0.0,0.0,3,Lying,4
2019-01-15,03:37:42,-0.72,-4.71,8.589999,0.0,0.0,0.0,0.0,0.0,0.0,3,Lying,4
2019-01-15,03:37:42,-0.82,-4.73,8.589999,0.0,0.0,0.0,0.0,0.0,0.0,3,Lying,4
2019-01-15,03:37:42,-0.82,-4.73,8.589999,0.0,0.0,0.0,0.0,0.0,0.0,3,Lying,4
2019-01-15,03:37:42,-0.73,-4.62,8.5,0.0,0.0,0.0,0.0,0.0,0.0,3,Lying,4
2019-01-15,03:37:42,-0.73,-4.62,8.5,0.01,-0.02,0.0,0.01,-0.02,0.0,3,Lying,4
2019-01-15,03:37:42,-0.62,-4.68,8.58,0.01,-0.02,0.0,0.01,-0.02,0.0,3,Lying,4
2019-01-15,03:37:42,-0.62,-4.68,8.58,0.0,-0.03,0.0,0.0,-0.03,0.0,3,Lying,4
2019-01-15,03:37:42,-0.77,-4.72,8.5,0.0,-0.03,0.0,0.0,-0.03,0.0,3,Lying,4
2019-01-15,03:37:42,-0.77,-4.72,8.5,0.0,0.0,0.0,0.0,0.0,0.0,3,Lying,4
2019-01-15,03:37:42,-0.72,-4.66,8.54,0.0,0.0,0.0,0.0,0.0,0.0,3,Lying,4
2019-01-15,03:37:42,-0.72,-4.66,8.54,0.0,0.0,0.0,0.0,0.0,0.0,3,Lying,4
2019-01-15,03:37:42,-0.69,-4.67,8.509999,0.0,0.0,0.0,0.0,0.0,0.0,3,Lying,4
2019-01-15,03:37:42,-0.69,-4.67,8.509999,0.0,0.0,0.0,0.0,0.0,0.0,3,Lying,4
2019-01-15,03:37:42,-0.78000003,-4.69,8.559999000000001,0.0,0.0,0.0,0.0,0.0,0.0,3,Lying,4
2019-01-15,03:37:42,-0.78000003,-4.69,8.559999000000001,0.0,0.0,0.0,0.0,0.0,0.0,3,Lying,4
2019-01-15,03:37:42,-0.74,-4.68,8.54,0.0,0.0,0.0,0.0,0.0,0.0,3,Lying,4
2019-01-15,03:37:42,-0.74,-4.68,8.54,0.01,-0.01,0.0,0.01,-0.01,0.0,3,Lying,4
2019-01-15,03:37:42,-0.67,-4.64,8.519999499999999,0.01,-0.01,0.0,0.01,-0.01,0.0,3,Lying,4
2019-01-15,03:37:42,-0.67,-4.64,8.519999499999999,0.01,-0.01,0.01,0.01,-0.01,0.01,3,Lying,4
2019-01-15,03:37:42,-0.72,-4.71,8.549999,0.01,-0.01,0.01,0.01,-0.01,0.01,3,Lying,4
2019-01-15,03:37:42,-0.72,-4.71,8.549999,0.0,0.0,0.01,0.0,0.0,0.01,3,Lying,4
2019-01-15,03:37:42,-0.69,-4.6,8.519999499999999,0.0,0.0,0.01,0.0,0.0,0.01,3,Lying,4
2019-01-15,03:37:42,-0.69,-4.6,8.519999499999999,0.01,0.0,0.01,0.01,0.0,0.01,3,Lying,4
2019-01-15,03:37:42,-0.77,-4.72,8.549999,0.01,0.0,0.01,0.01,0.0,0.01,3,Lying,4
2019-01-15,03:37:42,-0.77,-4.72,8.549999,0.0,0.0,0.0,0.0,0.0,0.0,3,Lying,4
2019-01-15,03:37:42,-0.67,-4.64,8.57,0.0,0.0,0.0,0.0,0.0,0.0,3,Lying,4
2019-01-15,03:37:42,-0.67,-4.64,8.57,0.01,0.0,0.01,0.01,0.0,0.01,3,Lying,4
2019-01-15,03:37:42,-0.79,-4.6,8.53,0.01,0.0,0.01,0.01,0.0,0.01,3,Lying,4
2019-01-15,03:37:42,-0.79,-4.6,8.53,0.01,0.01,0.01,0.01,0.01,0.01,3,Lying,4
2019-01-15,03:37:42,-0.74,-4.68,8.53,0.01,0.01,0.01,0.01,0.01,0.01,3,Lying,4
2019-01-15,03:37:42,-0.74,-4.68,8.53,0.0,0.0,0.01,0.0,0.0,0.01,3,Lying,4
2019-01-15,03:37:42,-0.67,-4.65,8.519999499999999,0.0,0.0,0.01,0.0,0.0,0.01,3,Lying,4
2019-01-15,03:37:42,-0.67,-4.65,8.519999499999999,0.0,0.0,0.0,0.0,0.0,0.0,3,Lying,4
2019-01-15,03:37:42,-0.78000003,-4.65,8.57,0.0,0.0,0.0,0.0,0.0,0.0,3,Lying,4
2019-01-15,03:37:42,-0.78000003,-4.65,8.57,0.0,0.01,0.0,0.0,0.01,0.0,3,Lying,4
2019-01-15,03:37:42,-0.78000003,-4.64,8.509999,0.0,0.01,0.0,0.0,0.01,0.0,3,Lying,4
2019-01-15,03:37:42,-0.78000003,-4.64,8.509999,0.0,0.01,0.0,0.0,0.01,0.0,3,Lying,4
2019-01-15,03:37:42,-0.73,-4.67,8.559999000000001,0.0,0.01,0.0,0.0,0.01,0.0,3,Lying,4
2019-01-15,03:37:43,-0.73,-4.67,8.559999000000001,0.0,0.0,0.01,0.0,0.0,0.01,3,Lying,4
2019-01-15,03:37:43,-0.76,-4.72,8.54,0.0,0.0,0.01,0.0,0.0,0.01,3,Lying,4
2019-01-15,03:37:43,-0.76,-4.72,8.54,0.0,0.01,0.0,0.0,0.01,0.0,3,Lying,4
2019-01-15,03:37:43,-0.83,-4.66,8.559999000000001,0.0,0.01,0.0,0.0,0.01,0.0,3,Lying,4
2019-01-15,03:37:43,-0.83,-4.66,8.559999000000001,0.0,0.01,0.0,0.0,0.01,0.0,3,Lying,4
2019-01-15,03:37:43,-0.74,-4.62,8.53,0.0,0.01,0.0,0.0,0.01,0.0,3,Lying,4
2019-01-15,03:37:43,-0.74,-4.62,8.53,0.01,-0.01,0.01,0.01,-0.01,0.01,3,Lying,4
2019-01-15,03:37:43,-0.75,-4.64,8.54,0.01,-0.01,0.01,0.01,-0.01,0.01,3,Lying,4
2019-01-15,03:37:43,-0.75,-4.64,8.54,0.0,-0.01,0.01,0.0,-0.01,0.01,3,Lying,4
2019-01-15,03:37:43,-0.76,-4.7,8.549999,0.0,-0.01,0.01,0.0,-0.01,0.01,3,Lying,4
2019-01-15,03:37:43,-0.76,-4.7,8.549999,0.0,0.0,0.0,0.0,0.0,0.0,3,Lying,4
2019-01-15,03:37:43,-0.78000003,-4.65,8.54,0.0,0.0,0.0,0.0,0.0,0.0,3,Lying,4
2019-01-15,03:37:43,-0.78000003,-4.65,8.54,0.0,0.0,0.0,0.0,0.0,0.0,3,Lying,4
2019-01-15,03:37:43,-0.8,-4.74,8.54,0.0,0.0,0.0,0.0,0.0,0.0,3,Lying,4
2019-01-15,03:37:43,-0.8,-4.74,8.54,0.0,0.0,0.0,0.0,0.0,0.0,3,Lying,4
2019-01-15,03:37:43,-0.82,-4.67,8.519999499999999,0.0,0.0,0.0,0.0,0.0,0.0,3,Lying,4
2019-01-15,03:37:43,-0.82,-4.67,8.519999499999999,0.0,0.0,0.0,0.0,0.0,0.0,3,Lying,4
2019-01-15,03:37:43,-0.83,-4.71,8.54,0.0,0.0,0.0,0.0,0.0,0.0,3,Lying,4
2019-01-15,03:37:43,-0.83,-4.71,8.54,0.0,-0.01,0.0,0.0,-0.01,0.0,3,Lying,4
2019-01-15,03:37:43,-0.72,-4.62,8.549999,0.0,-0.01,0.0,0.0,-0.01,0.0,3,Lying,4
2019-01-15,03:37:43,-0.72,-4.62,8.549999,0.0,-0.01,0.01,0.0,-0.01,0.01,3,Lying,4
2019-01-15,03:37:43,-0.72,-4.64,8.519999499999999,0.0,-0.01,0.01,0.0,-0.01,0.01,3,Lying,4
2019-01-15,03:37:43,-0.72,-4.64,8.519999499999999,0.0,-0.01,0.0,0.0,-0.01,0.0,3,Lying,4
2019-01-15,03:37:43,-0.7,-4.7,8.549999,0.0,-0.01,0.0,0.0,-0.01,0.0,3,Lying,4
2019-01-15,03:37:43,-0.7,-4.7,8.549999,0.0,-0.01,0.01,0.0,-0.01,0.01,3,Lying,4
2019-01-15,03:37:43,-0.78000003,-4.67,8.57,0.0,-0.01,0.01,0.0,-0.01,0.01,3,Lying,4
2019-01-15,03:37:43,-0.78000003,-4.67,8.57,0.0,0.0,0.0,0.0,0.0,0.0,3,Lying,4
2019-01-15,03:37:43,-0.76,-4.67,8.54,0.0,0.0,0.0,0.0,0.0,0.0,3,Lying,4
2019-01-15,03:37:43,-0.76,-4.67,8.54,0.0,-0.01,0.0,0.0,-0.01,0.0,3,Lying,4
2019-01-15,03:37:43,-0.69,-4.67,8.58,0.0,-0.01,0.0,0.0,-0.01,0.0,3,Lying,4
2019-01-15,03:37:43,-0.69,-4.67,8.58,0.0,-0.01,0.01,0.0,-0.01,0.01,3,Lying,4
2019-01-15,03:37:43,-0.83,-4.66,8.549999,0.0,-0.01,0.01,0.0,-0.01,0.01,3,Lying,4
2019-01-15,03:37:43,-0.83,-4.66,8.549999,0.0,0.0,0.0,0.0,0.0,0.0,3,Lying,4
2019-01-15,03:37:43,-0.76,-4.7,8.57,0.0,-0.01,0.01,0.0,-0.01,0.01,3,Lying,4
2019-01-15,03:37:43,-0.76,-4.7,8.57,0.0,-0.01,0.01,0.0,-0.01,0.01,3,Lying,4
2019-01-15,03:37:43,-0.67,-4.63,8.58,0.0,-0.01,0.01,0.0,-0.01,0.01,3,Lying,4
2019-01-15,03:37:43,-0.67,-4.63,8.58,0.0,0.0,0.0,0.0,0.0,0.0,3,Lying,4
2019-01-15,03:37:43,-0.76,-4.62,8.53,0.0,0.0,0.0,0.0,0.0,0.0,3,Lying,4
2019-01-15,03:37:43,-0.76,-4.62,8.53,0.01,0.0,0.0,0.01,0.0,0.0,3,Lying,4
2019-01-15,03:37:43,-0.68,-4.68,8.58,0.01,0.0,0.0,0.01,0.0,0.0,3,Lying,4
2019-01-15,03:37:43,-0.68,-4.68,8.58,0.0,0.0,0.01,0.0,0.0,0.01,3,Lying,4
2019-01-15,03:37:43,-0.78000003,-4.68,8.559999000000001,0.0,0.0,0.01,0.0,0.0,0.01,3,Lying,4
2019-01-15,03:37:43,-0.78000003,-4.68,8.559999000000001,0.0,0.01,0.01,0.0,0.01,0.01,3,Lying,4
2019-01-15,03:37:43,-0.82,-4.67,8.559999000000001,0.0,0.01,0.01,0.0,0.01,0.01,3,Lying,4
2019-01-15,03:37:43,-0.82,-4.67,8.559999000000001,0.0,0.01,0.01,0.0,0.01,0.01,3,Lying,4
2019-01-15,03:37:44,-0.73,-4.5899997,8.559999000000001,0.0,0.01,0.01,0.0,0.01,0.01,3,Lying,4
2019-01-15,03:37:44,-0.73,-4.5899997,8.559999000000001,0.01,0.0,0.01,0.01,0.0,0.01,3,Lying,4
2019-01-15,03:37:44,-0.75,-4.58,8.57,0.01,0.0,0.01,0.01,0.0,0.01,3,Lying,4
2019-01-15,03:37:44,-0.75,-4.58,8.57,0.0,-0.01,0.0,0.0,-0.01,0.0,3,Lying,4
2019-01-15,03:37:44,-0.78000003,-4.67,8.549999,0.0,-0.01,0.0,0.0,-0.01,0.0,3,Lying,4
2019-01-15,03:37:44,-0.78000003,-4.67,8.549999,0.0,0.02,0.02,0.0,0.02,0.02,3,Lying,4
2019-01-15,03:37:44,-0.84000003,-4.63,8.53,0.0,0.02,0.02,0.0,0.02,0.02,3,Lying,4
2019-01-15,03:37:44,-0.84000003,-4.63,8.53,0.0,0.0,0.0,0.0,0.0,0.0,3,Lying,4
2019-01-15,03:37:44,-0.75,-4.65,8.549999,0.0,0.0,0.0,0.0,0.0,0.0,3,Lying,4
2019-01-15,03:37:44,-0.75,-4.65,8.549999,0.0,-0.01,0.0,0.0,-0.01,0.0,3,Lying,4
2019-01-15,03:37:44,-0.78000003,-4.7,8.57,0.0,-0.01,0.0,0.0,-0.01,0.0,3,Lying,4
2019-01-15,03:37:44,-0.78000003,-4.7,8.57,0.0,-0.01,0.0,0.0,-0.01,0.0,3,Lying,4
2019-01-15,03:37:44,-0.78000003,-4.65,8.549999,0.0,-0.01,0.0,0.0,-0.01,0.0,3,Lying,4
2019-01-15,03:37:44,-0.78000003,-4.65,8.549999,0.0,-0.02,0.0,0.0,-0.02,0.0,3,Lying,4
2019-01-15,03:37:44,-0.86,-4.65,8.519999499999999,0.0,-0.02,0.0,0.0,-0.02,0.0,3,Lying,4
2019-01-15,03:37:44,-0.86,-4.65,8.519999499999999,0.0,-0.02,0.0,0.0,-0.02,0.0,3,Lying,4
2019-01-15,03:37:44,-0.86,-4.65,8.519999499999999,0.0,-0.02,0.0,0.0,-0.02,0.0,3,Lying,4
2019-01-15,03:37:44,-0.69,-4.6099997,8.58,0.0,-0.02,0.0,0.0,-0.02,0.0,3,Lying,4
2019-01-15,03:37:44,-0.69,-4.6099997,8.58,0.0,-0.049999997000000004,0.0,0.0,-0.049999997000000004,0.0,3,Lying,4
2019-01-15,03:37:44,-0.69,-4.65,8.54,0.0,-0.04,0.0,0.0,-0.04,0.0,3,Lying,4
2019-01-15,03:37:44,-0.69,-4.65,8.54,0.0,-0.04,0.0,0.0,-0.04,0.0,3,Lying,4
2019-01-15,03:37:44,-0.78000003,-4.67,8.57,0.0,-0.04,0.0,0.0,-0.04,0.0,3,Lying,4
2019-01-15,03:37:44,-0.78000003,-4.67,8.57,0.0,0.0,0.0,0.0,0.0,0.0,3,Lying,4
2019-01-15,03:37:44,-0.75,-4.67,8.559999000000001,0.0,0.0,0.0,0.0,0.0,0.0,3,Lying,4
2019-01-15,03:37:44,-0.75,-4.67,8.559999000000001,0.0,-0.01,0.0,0.0,-0.01,0.0,3,Lying,4
2019-01-15,03:37:44,-0.72,-4.64,8.53,0.0,-0.01,0.0,0.0,-0.01,0.0,3,Lying,4
2019-01-15,03:37:44,-0.72,-4.64,8.53,0.0,-0.02,0.0,0.0,-0.02,0.0,3,Lying,4
2019-01-15,03:37:44,-0.76,-4.65,8.519999499999999,0.0,-0.02,0.0,0.0,-0.02,0.0,3,Lying,4
2019-01-15,03:37:44,-0.76,-4.65,8.519999499999999,0.0,-0.02,0.0,0.0,-0.02,0.0,3,Lying,4
2019-01-15,03:37:44,-0.7,-4.66,8.53,0.0,-0.02,0.0,0.0,-0.02,0.0,3,Lying,4
2019-01-15,03:37:44,-0.7,-4.66,8.53,0.0,-0.01,0.0,0.0,-0.01,0.0,3,Lying,4
2019-01-15,03:37:44,-0.7,-4.69,8.54,0.0,-0.01,0.0,0.0,-0.01,0.0,3,Lying,4
2019-01-15,03:37:44,-0.7,-4.69,8.54,0.0,-0.02,0.0,0.0,-0.02,0.0,3,Lying,4
2019-01-15,03:37:44,-0.69,-4.67,8.549999,0.0,-0.02,0.0,0.0,-0.02,0.0,3,Lying,4
2019-01-15,03:37:44,-0.69,-4.67,8.549999,0.0,-0.01,0.0,0.0,-0.01,0.0,3,Lying,4
2019-01-15,03:37:44,-0.82,-4.69,8.57,0.0,-0.01,0.0,0.0,-0.01,0.0,3,Lying,4
2019-01-15,03:37:44,-0.82,-4.69,8.57,0.0,-0.01,0.0,0.0,-0.01,0.0,3,Lying,4
2019-01-15,03:37:44,-0.6,-4.68,8.62,0.0,-0.01,0.0,0.0,-0.01,0.0,3,Lying,4
2019-01-15,03:37:44,-0.6,-4.68,8.62,0.0,-0.03,0.0,0.0,-0.03,0.0,3,Lying,4
2019-01-15,03:37:44,-0.74,-4.71,8.53,0.0,-0.03,0.0,0.0,-0.03,0.0,3,Lying,4
2019-01-15,03:37:44,-0.74,-4.71,8.53,0.01,0.0,0.0,0.01,0.0,0.0,3,Lying,4
2019-01-15,03:37:44,-0.57,-4.5899997,8.549999,0.01,-0.01,0.01,0.01,-0.01,0.01,3,Lying,4
2019-01-15,03:37:44,-0.57,-4.5899997,8.549999,0.01,-0.01,0.01,0.01,-0.01,0.01,3,Lying,4
2019-01-15,03:37:44,-0.66,-4.65,8.559999000000001,0.01,-0.01,0.01,0.01,-0.01,0.01,3,Lying,4
2019-01-15,03:37:44,-0.66,-4.65,8.559999000000001,0.0,0.0,0.0,0.0,0.0,0.0,3,Lying,4
2019-01-15,03:37:45,-0.74,-4.66,8.549999,0.0,0.0,0.0,0.0,0.0,0.0,3,Lying,4
2019-01-15,03:37:45,-0.74,-4.66,8.549999,0.0,0.0,0.0,0.0,0.0,0.0,3,Lying,4
2019-01-15,03:37:45,-0.64,-4.65,8.49,0.0,-0.01,0.0,0.0,-0.01,0.0,3,Lying,4
2019-01-15,03:37:45,-0.64,-4.65,8.49,0.0,-0.01,0.0,0.0,-0.01,0.0,3,Lying,4
2019-01-15,03:37:45,-0.64,-4.68,8.679999,0.0,-0.01,0.0,0.0,-0.01,0.0,3,Lying,4
2019-01-15,03:37:45,-0.64,-4.68,8.679999,0.0,-0.02,0.0,0.0,-0.02,0.0,3,Lying,4
2019-01-15,03:37:45,-0.52000004,-4.42,8.5,0.0,-0.02,0.0,0.0,-0.02,0.0,3,Lying,4
2019-01-15,03:37:45,-0.52000004,-4.42,8.5,0.01,-0.04,0.0,0.01,-0.04,0.0,3,Lying,4
2019-01-15,03:37:45,-0.48,-4.3999996,8.48,0.01,-0.04,0.0,0.01,-0.04,0.0,3,Lying,4
2019-01-15,03:37:45,-0.48,-4.3999996,8.48,-0.02,-0.02,0.01,-0.02,-0.02,0.01,3,Lying,4
2019-01-15,03:37:45,-0.76,-4.4399996,8.44,-0.02,-0.02,0.01,-0.02,-0.02,0.01,3,Lying,4
2019-01-15,03:37:45,-0.76,-4.4399996,8.44,-0.08,0.02,-0.01,-0.08,0.02,-0.01,3,Lying,4
2019-01-15,03:37:45,-1.09,-4.7599998,8.54,-0.08,0.02,-0.01,-0.08,0.02,-0.01,3,Lying,4
2019-01-15,03:37:45,-1.09,-4.7599998,8.54,-0.14999999,0.06,-0.02,-0.14999999,0.06,-0.02,3,Lying,4
2019-01-15,03:37:45,-1.13,-5.0699997,8.509999,-0.14999999,0.06,-0.02,-0.14999999,0.06,-0.02,3,Lying,4
2019-01-15,03:37:45,-1.13,-5.0699997,8.509999,-0.12,-0.04,-0.04,-0.12,-0.04,-0.04,3,Lying,4
2019-01-15,03:37:45,-0.39,-4.85,8.45,-0.12,-0.04,-0.04,-0.12,-0.04,-0.04,3,Lying,4
2019-01-15,03:37:45,-0.39,-4.85,8.45,-0.07,-0.17,-0.04,-0.07,-0.17,-0.04,3,Lying,4
2019-01-15,03:37:45,-0.08,-4.71,8.48,-0.07,-0.17,-0.04,-0.07,-0.17,-0.04,3,Lying,4
2019-01-15,03:37:45,-0.08,-4.71,8.48,-0.089999996,-0.03,0.01,-0.089999996,-0.03,0.01,3,Lying,4
2019-01-15,03:37:45,-0.84000003,-5.39,8.509999,-0.089999996,-0.03,0.01,-0.089999996,-0.03,0.01,3,Lying,4
2019-01-15,03:37:45,-0.84000003,-5.39,8.509999,-0.17,0.19999999,0.02,-0.17,0.19999999,0.02,3,Lying,4
2019-01-15,03:37:45,-1.0600001000000001,-5.3799996,8.5,-0.17,0.19999999,0.02,-0.17,0.19999999,0.02,3,Lying,4
2019-01-15,03:37:45,-1.0600001000000001,-5.3799996,8.5,-0.08,0.14,0.02,-0.08,0.14,0.02,3,Lying,4
2019-01-15,03:37:45,-0.63,-5.04,8.4,-0.08,0.14,0.02,-0.08,0.14,0.02,3,Lying,4
2019-01-15,03:37:45,-0.63,-5.04,8.4,0.03,-0.049999997000000004,0.04,0.03,-0.049999997000000004,0.04,3,Lying,4
2019-01-15,03:37:45,-0.61,-5.0899997,8.389999000000001,0.03,-0.049999997000000004,0.04,0.03,-0.049999997000000004,0.04,3,Lying,4
2019-01-15,03:37:45,-0.61,-5.0899997,8.389999000000001,0.02,-0.07,0.02,0.02,-0.07,0.02,3,Lying,4
2019-01-15,03:37:45,-0.16999999,-4.8599997,8.49,0.02,-0.07,0.02,0.02,-0.07,0.02,3,Lying,4
2019-01-15,03:37:45,-0.16999999,-4.8599997,8.49,0.049999997000000004,-0.09999999400000001,0.03,0.049999997000000004,-0.09999999400000001,0.03,3,Lying,4
2019-01-15,03:37:45,-0.69,-4.91,8.41,0.04,0.0,0.01,0.04,0.0,0.01,3,Lying,4
2019-01-15,03:37:45,-0.69,-4.91,8.41,0.04,0.0,0.01,0.04,0.0,0.01,3,Lying,4
2019-01-15,03:37:45,-1.0,-4.74,8.46,0.04,0.0,0.01,0.04,0.0,0.01,3,Lying,4
2019-01-15,03:37:45,-1.0,-4.74,8.46,0.04,0.11,0.01,0.04,0.11,0.01,3,Lying,4
2019-01-15,03:37:45,-0.8,-4.71,8.41,0.04,0.11,0.01,0.04,0.11,0.01,3,Lying,4
2019-01-15,03:37:45,-0.8,-4.71,8.41,0.01,0.08,0.02,0.01,0.08,0.02,3,Lying,4
2019-01-15,03:37:45,-1.15,-4.77,8.41,0.01,0.08,0.02,0.01,0.08,0.02,3,Lying,4
2019-01-15,03:37:45,-1.15,-4.77,8.41,-0.01,0.11,0.01,-0.01,0.11,0.01,3,Lying,4
2019-01-15,03:37:45,-1.25,-4.8199997,8.41,-0.01,0.11,0.01,-0.01,0.11,0.01,3,Lying,4
2019-01-15,03:37:45,-1.25,-4.8199997,8.41,-0.03,-0.01,-0.01,-0.03,-0.01,-0.01,3,Lying,4
2019-01-15,03:37:45,-0.74,-4.97,8.41,-0.03,-0.01,-0.01,-0.03,-0.01,-0.01,3,Lying,4
2019-01-15,03:37:45,-0.74,-4.97,8.41,-0.04,-0.14999999,-0.01,-0.04,-0.14999999,-0.01,3,Lying,4
2019-01-15,03:37:45,-0.39,-5.0499997,8.429999,-0.04,-0.14999999,-0.01,-0.04,-0.14999999,-0.01,3,Lying,4
2019-01-15,03:37:45,-0.39,-5.0499997,8.429999,-0.03,-0.14,0.0,-0.03,-0.14,0.0,3,Lying,4
2019-01-15,03:37:45,-0.48,-5.0899997,8.41,-0.03,-0.14,0.0,-0.03,-0.14,0.0,3,Lying,4
2019-01-15,03:37:45,-0.48,-5.0899997,8.41,-0.01,0.0,0.0,-0.01,0.0,0.0,3,Lying,4
2019-01-15,03:37:46,-0.58000004,-4.94,8.41,-0.01,0.0,0.0,-0.01,0.0,0.0,3,Lying,4
2019-01-15,03:37:46,-0.58000004,-4.94,8.41,0.01,0.02,0.0,0.01,0.02,0.0,3,Lying,4
2019-01-15,03:37:46,-0.75,-4.96,8.41,0.01,0.02,0.0,0.01,0.02,0.0,3,Lying,4
2019-01-15,03:37:46,-0.75,-4.96,8.41,0.0,0.049999997000000004,0.0,0.0,0.049999997000000004,0.0,3,Lying,4
2019-01-15,03:37:46,-0.88,-5.0099998,8.469999000000001,0.0,0.049999997000000004,0.0,0.0,0.049999997000000004,0.0,3,Lying,4
2019-01-15,03:37:46,-0.88,-5.0099998,8.469999000000001,0.0,0.02,0.0,0.0,0.02,0.0,3,Lying,4
2019-01-15,03:37:46,-0.77,-4.8399997,8.4,0.0,0.02,0.0,0.0,0.02,0.0,3,Lying,4
2019-01-15,03:37:46,-0.77,-4.8399997,8.4,0.01,0.0,0.01,0.01,0.0,0.01,3,Lying,4
2019-01-15,03:37:46,-0.78000003,-4.9,8.46,0.01,0.0,0.01,0.01,0.0,0.01,3,Lying,4
2019-01-15,03:37:46,-0.78000003,-4.9,8.46,0.0,0.0,0.01,0.0,0.0,0.01,3,Lying,4
2019-01-15,03:37:46,-0.76,-5.0,8.42,0.0,0.0,0.01,0.0,0.0,0.01,3,Lying,4
2019-01-15,03:37:46,-0.76,-5.0,8.42,0.0,-0.04,0.01,0.0,-0.04,0.01,3,Lying,4
2019-01-15,03:37:46,-0.57,-5.0,8.469999000000001,0.0,-0.04,0.01,0.0,-0.04,0.01,3,Lying,4
2019-01-15,03:37:46,-0.57,-5.0,8.469999000000001,0.02,-0.06,0.0,0.02,-0.06,0.0,3,Lying,4
2019-01-15,03:37:46,-0.92,-5.0899997,8.4,0.02,-0.06,0.0,0.02,-0.06,0.0,3,Lying,4
2019-01-15,03:37:46,-0.92,-5.0899997,8.4,0.049999997000000004,-0.04,0.0,0.049999997000000004,-0.04,0.0,3,Lying,4
2019-01-15,03:37:46,-0.35,-4.8199997,8.48,0.049999997000000004,-0.04,0.0,0.049999997000000004,-0.04,0.0,3,Lying,4
2019-01-15,03:37:46,-0.35,-4.8199997,8.48,0.07,-0.09999999400000001,0.02,0.07,-0.09999999400000001,0.02,3,Lying,4
2019-01-15,03:37:46,-0.13,-4.8399997,8.44,0.07,-0.09999999400000001,0.02,0.07,-0.09999999400000001,0.02,3,Lying,4
2019-01-15,03:37:46,-0.13,-4.8399997,8.44,0.07,0.01,0.07,0.07,0.01,0.07,3,Lying,4
2019-01-15,03:37:46,-0.99,-5.0499997,8.509999,0.07,0.01,0.07,0.07,0.01,0.07,3,Lying,4
2019-01-15,03:37:46,-0.99,-5.0499997,8.509999,0.049999997000000004,0.16,0.04,0.049999997000000004,0.16,0.04,3,Lying,4
2019-01-15,03:37:46,-0.77,-4.4399996,8.4,0.049999997000000004,0.16,0.04,0.049999997000000004,0.16,0.04,3,Lying,4
2019-01-15,03:37:46,-0.77,-4.4399996,8.4,0.089999996,0.07,0.03,0.089999996,0.07,0.03,3,Lying,4
2019-01-15,03:37:46,-1.36,-4.72,8.429999,0.089999996,0.07,0.03,0.089999996,0.07,0.03,3,Lying,4
2019-01-15,03:37:46,-1.36,-4.72,8.429999,0.01,0.08,0.0,0.01,0.08,0.0,3,Lying,4
2019-01-15,03:37:46,-0.85,-4.5899997,8.519999499999999,0.01,0.08,0.0,0.01,0.08,0.0,3,Lying,4
2019-01-15,03:37:46,-0.85,-4.5899997,8.519999499999999,-0.01,-0.06,0.0,-0.01,-0.06,0.0,3,Lying,4
2019-01-15,03:37:46,-0.86,-4.83,8.53,-0.01,-0.06,0.0,-0.01,-0.06,0.0,3,Lying,4
2019-01-15,03:37:46,-0.86,-4.83,8.53,-0.049999997000000004,-0.04,-0.01,-0.049999997000000004,-0.04,-0.01,3,Lying,4
2019-01-15,03:37:46,-0.52000004,-4.88,8.54,-0.049999997000000004,-0.04,-0.01,-0.049999997000000004,-0.04,-0.01,3,Lying,4
2019-01-15,03:37:46,-0.52000004,-4.88,8.54,-0.01,-0.08,0.0,-0.01,-0.08,0.0,3,Lying,4
2019-01-15,03:37:46,-0.59000003,-4.97,8.469999000000001,-0.01,-0.08,0.0,-0.01,-0.08,0.0,3,Lying,4
2019-01-15,03:37:46,-0.59000003,-4.97,8.469999000000001,0.0,-0.02,-0.01,0.0,-0.02,-0.01,3,Lying,4
2019-01-15,03:37:46,-0.75,-4.93,8.41,0.0,-0.02,-0.01,0.0,-0.02,-0.01,3,Lying,4
2019-01-15,03:37:46,-0.75,-4.93,8.41,0.02,0.0,0.0,0.02,0.0,0.0,3,Lying,4
2019-01-15,03:37:46,-0.63,-4.92,8.45,0.02,0.0,0.0,0.02,0.0,0.0,3,Lying,4
2019-01-15,03:37:46,-0.63,-4.92,8.45,0.03,-0.04,0.0,0.03,-0.04,0.0,3,Lying,4
2019-01-15,03:37:46,-0.58000004,-4.88,8.519999499999999,0.03,-0.04,0.0,0.03,-0.04,0.0,3,Lying,4
2019-01-15,03:37:46,-0.58000004,-4.88,8.519999499999999,0.04,0.0,0.01,0.04,0.0,0.01,3,Lying,4
2019-01-15,03:37:46,-0.81,-4.8399997,8.44,0.04,0.0,0.01,0.04,0.0,0.01,3,Lying,4
2019-01-15,03:37:46,-0.81,-4.8399997,8.44,0.06,0.049999997000000004,0.03,0.06,0.049999997000000004,0.03,3,Lying,4
2019-01-15,03:37:46,-0.72,-4.75,8.48,0.06,0.049999997000000004,0.03,0.06,0.049999997000000004,0.03,3,Lying,4
2019-01-15,03:37:46,-0.72,-4.75,8.48,0.06,0.04,0.03,0.06,0.04,0.03,3,Lying,4
2019-01-15,03:37:46,-0.85,-4.8399997,8.65,0.06,0.04,0.03,0.06,0.04,0.03,3,Lying,4
2019-01-15,03:37:46,-0.85,-4.8399997,8.65,0.08,0.03,0.01,0.08,0.03,0.01,3,Lying,4
2019-01-15,03:37:47,-1.07,-4.34,8.61,0.08,0.03,0.01,0.08,0.03,0.01,3,Lying,4
2019-01-15,03:37:47,-1.07,-4.34,8.61,0.16,-0.02,-0.01,0.16,-0.02,-0.01,3,Lying,4
2019-01-15,03:37:47,-0.69,-4.0299997,8.259999,0.16,-0.02,-0.01,0.16,-0.02,-0.01,3,Lying,4
2019-01-15,03:37:47,-0.69,-4.0299997,8.259999,-0.01,-0.14999999,-0.03,-0.01,-0.14999999,-0.03,3,Lying,4
2019-01-15,03:37:47,-1.04,-4.87,8.589999,-0.14999999,-0.04,0.0,-0.14999999,-0.04,0.0,3,Lying,4
2019-01-15,03:37:47,-1.04,-4.87,8.589999,-0.14999999,-0.04,0.0,-0.14999999,-0.04,0.0,3,Lying,4
2019-01-15,03:37:47,-0.62,-4.81,8.42,-0.14999999,-0.04,0.0,-0.14999999,-0.04,0.0,3,Lying,4
2019-01-15,03:37:47,-0.62,-4.81,8.42,-0.11,-0.01,0.04,-0.11,-0.01,0.04,3,Lying,4
2019-01-15,03:37:47,-0.26999998,-5.4,8.79,-0.11,-0.01,0.04,-0.11,-0.01,0.04,3,Lying,4
2019-01-15,03:37:47,-0.26999998,-5.4,8.79,-0.09999999400000001,0.0,0.06,-0.09999999400000001,0.0,0.06,3,Lying,4
2019-01-15,03:37:47,-0.75,-5.12,8.599999,-0.09999999400000001,0.0,0.06,-0.09999999400000001,0.0,0.06,3,Lying,4
2019-01-15,03:37:47,-0.75,-5.12,8.599999,0.11,0.02,0.0,0.11,0.02,0.0,3,Lying,4
2019-01-15,03:37:47,-0.85,-4.62,8.4,0.19,-0.04,-0.02,0.19,-0.04,-0.02,3,Lying,4
2019-01-15,03:37:47,-0.85,-4.62,8.4,0.19,-0.04,-0.02,0.19,-0.04,-0.02,3,Lying,4
2019-01-15,03:37:47,-0.61,-4.24,8.379999,0.19,-0.04,-0.02,0.19,-0.04,-0.02,3,Lying,4
2019-01-15,03:37:47,-0.61,-4.24,8.379999,0.08,-0.049999997000000004,-0.01,0.08,-0.049999997000000004,-0.01,3,Lying,4
2019-01-15,03:37:47,-0.39999998,-4.4399996,8.5,0.08,-0.049999997000000004,-0.01,0.08,-0.049999997000000004,-0.01,3,Lying,4
2019-01-15,03:37:47,-0.39999998,-4.4399996,8.5,-0.02,0.01,0.03,-0.02,0.01,0.03,3,Lying,4
2019-01-15,03:37:47,-0.88,-4.71,8.599999,-0.02,0.01,0.03,-0.02,0.01,0.03,3,Lying,4
2019-01-15,03:37:47,-0.88,-4.71,8.599999,-0.09999999400000001,0.13,0.0,-0.09999999400000001,0.13,0.0,3,Lying,4
2019-01-15,03:37:47,-1.32,-4.77,8.589999,-0.09999999400000001,0.13,0.0,-0.09999999400000001,0.13,0.0,3,Lying,4
2019-01-15,03:37:47,-1.32,-4.77,8.589999,-0.06,0.11,-0.02,-0.06,0.11,-0.02,3,Lying,4
2019-01-15,03:37:47,-1.1,-4.4399996,8.509999,-0.06,0.11,-0.02,-0.06,0.11,-0.02,3,Lying,4
2019-01-15,03:37:47,-1.1,-4.4399996,8.509999,-0.03,-0.06,-0.03,-0.03,-0.06,-0.03,3,Lying,4
2019-01-15,03:37:47,-0.49999997,-4.7599998,8.57,-0.07,-0.14,-0.01,-0.07,-0.14,-0.01,3,Lying,4
2019-01-15,03:37:47,-0.49999997,-4.7599998,8.57,-0.07,-0.14,-0.01,-0.07,-0.14,-0.01,3,Lying,4
2019-01-15,03:37:47,-0.23999998,-5.08,8.599999,-0.07,-0.14,-0.01,-0.07,-0.14,-0.01,3,Lying,4
2019-01-15,03:37:47,-0.23999998,-5.08,8.599999,-0.089999996,-0.19999999,0.01,-0.089999996,-0.19999999,0.01,3,Lying,4
2019-01-15,03:37:47,0.049999997000000004,-5.12,8.58,-0.089999996,-0.19999999,0.01,-0.089999996,-0.19999999,0.01,3,Lying,4
2019-01-15,03:37:47,0.049999997000000004,-5.12,8.58,0.01,-0.17,0.0,0.01,-0.17,0.0,3,Lying,4
2019-01-15,03:37:47,-0.049999997000000004,-4.9,8.54,0.01,-0.17,0.0,0.01,-0.17,0.0,3,Lying,4
2019-01-15,03:37:47,-0.049999997000000004,-4.9,8.54,0.049999997000000004,0.0,-0.01,0.049999997000000004,0.0,-0.01,3,Lying,4
2019-01-15,03:37:47,-0.57,-4.6099997,8.429999,0.049999997000000004,0.0,-0.01,0.049999997000000004,0.0,-0.01,3,Lying,4
2019-01-15,03:37:47,-0.57,-4.6099997,8.429999,0.06,0.12,-0.01,0.06,0.12,-0.01,3,Lying,4
2019-01-15,03:37:47,-0.84000003,-4.8599997,8.469999000000001,0.06,0.12,-0.01,0.06,0.12,-0.01,3,Lying,4
2019-01-15,03:37:47,-0.84000003,-4.8599997,8.469999000000001,-0.01,0.07,0.01,-0.01,0.07,0.01,3,Lying,4
2019-01-15,03:37:47,-0.69,-4.95,8.589999,-0.01,0.07,0.01,-0.01,0.07,0.01,3,Lying,4
2019-01-15,03:37:47,-0.69,-4.95,8.589999,0.0,0.0,0.01,0.0,0.0,0.01,3,Lying,4
2019-01-15,03:37:47,-0.66,-4.7799997,8.53,0.01,0.01,0.02,0.01,0.01,0.02,3,Lying,4
2019-01-15,03:37:47,-0.66,-4.7799997,8.53,0.01,0.01,0.02,0.01,0.01,0.02,3,Lying,4
2019-01-15,03:37:47,-0.64,-4.5899997,8.53,0.01,0.01,0.02,0.01,0.01,0.02,3,Lying,4
2019-01-15,03:37:47,-0.64,-4.5899997,8.53,0.06,0.01,0.01,0.06,0.01,0.01,3,Lying,4
2019-01-15,03:37:47,-0.62,-4.47,8.57,0.06,0.01,0.01,0.06,0.01,0.01,3,Lying,4
2019-01-15,03:37:47,-0.62,-4.47,8.57,0.049999997000000004,0.02,0.01,0.049999997000000004,0.02,0.01,3,Lying,4
2019-01-15,03:37:47,-0.78000003,-4.5699997,8.49,0.049999997000000004,0.02,0.01,0.049999997000000004,0.02,0.01,3,Lying,4
2019-01-15,03:37:48,-0.78000003,-4.5699997,8.49,0.0,0.02,0.0,0.0,0.02,0.0,3,Lying,4
2019-01-15,03:37:48,-0.48,-4.8199997,8.61,0.0,0.02,0.0,0.0,0.02,0.0,3,Lying,4
2019-01-15,03:37:48,-0.48,-4.8199997,8.61,-0.049999997000000004,-0.06,0.0,-0.049999997000000004,-0.06,0.0,3,Lying,4
2019-01-15,03:37:48,-0.73,-4.89,8.54,-0.049999997000000004,-0.06,0.0,-0.049999997000000004,-0.06,0.0,3,Lying,4
2019-01-15,03:37:48,-0.73,-4.89,8.54,-0.02,0.01,0.0,-0.02,0.01,0.0,3,Lying,4
2019-01-15,03:37:48,-0.64,-4.83,8.509999,-0.02,0.01,0.0,-0.02,0.01,0.0,3,Lying,4
2019-01-15,03:37:48,-0.64,-4.83,8.509999,0.0,0.0,0.01,0.0,0.0,0.01,3,Lying,4
2019-01-15,03:37:48,-0.08,-4.8599997,8.519999499999999,0.0,0.0,0.01,0.0,0.0,0.01,3,Lying,4
2019-01-15,03:37:48,-0.08,-4.8599997,8.519999499999999,0.01,0.0,0.0,0.01,0.0,0.0,3,Lying,4
2019-01-15,03:37:48,-0.76,-5.94,8.269999499999999,0.01,0.0,0.0,0.01,0.0,0.0,3,Lying,4
2019-01-15,03:37:48,-0.76,-5.94,8.269999499999999,0.01,0.0,0.01,0.01,0.0,0.01,3,Lying,4
2019-01-15,03:37:48,1.4399998999999999,-5.83,8.15,0.01,0.0,0.01,0.01,0.0,0.01,3,Lying,4
2019-01-15,03:37:48,1.4399998999999999,-5.83,8.15,0.01,-0.01,0.01,0.01,-0.01,0.01,3,Lying,4
2019-01-15,03:37:48,-2.35,-4.85,8.62,0.01,-0.01,0.01,0.01,-0.01,0.01,3,Lying,4
2019-01-15,03:37:48,-2.35,-4.85,8.62,0.01,0.04,0.0,0.01,0.04,0.0,3,Lying,4
2019-01-15,03:37:48,-0.48999998,-5.02,8.4,0.01,0.04,0.0,0.01,0.04,0.0,3,Lying,4
2019-01-15,03:37:48,-0.48999998,-5.02,8.4,0.0,0.02,0.0,0.0,0.02,0.0,3,Lying,4
2019-01-15,03:37:48,-0.58000004,-4.5699997,8.639999000000001,0.0,0.02,0.0,0.0,0.02,0.0,3,Lying,4
2019-01-15,03:37:48,-0.58000004,-4.5699997,8.639999000000001,0.0,-0.02,0.01,0.0,-0.02,0.01,3,Lying,4
2019-01-15,03:37:48,-0.01,-3.84,8.719999000000001,0.0,-0.02,0.01,0.0,-0.02,0.01,3,Lying,4
2019-01-15,03:37:48,-0.01,-3.84,8.719999000000001,-0.01,-0.06,0.0,-0.01,-0.06,0.0,3,Lying,4
2019-01-15,03:37:48,-0.049999997000000004,-3.3799998999999996,8.799999,-0.01,-0.06,0.0,-0.01,-0.06,0.0,3,Lying,4
2019-01-15,03:37:48,-0.049999997000000004,-3.3799998999999996,8.799999,0.0,0.01,0.0,0.0,0.01,0.0,3,Lying,4
2019-01-15,03:37:48,1.0699999,-3.9499998,8.589999,0.0,0.01,0.0,0.0,0.01,0.0,3,Lying,4
2019-01-15,03:37:48,1.0699999,-3.9499998,8.589999,0.01,0.049999997000000004,0.01,0.01,0.049999997000000004,0.01,3,Lying,4
2019-01-15,03:37:48,-1.52,-4.21,8.69,0.01,0.049999997000000004,0.01,0.01,0.049999997000000004,0.01,3,Lying,4
2019-01-15,03:37:48,-1.52,-4.21,8.69,0.01,0.02,0.01,0.01,0.02,0.01,3,Lying,4
2019-01-15,03:37:48,-1.32,-4.73,8.509999,0.01,0.02,0.01,0.01,0.02,0.01,3,Lying,4
2019-01-15,03:37:48,-1.32,-4.73,8.509999,0.0,0.0,0.01,0.0,0.0,0.01,3,Lying,4
2019-01-15,03:37:48,-0.99,-4.74,8.519999499999999,0.0,0.0,0.01,0.0,0.0,0.01,3,Lying,4
2019-01-15,03:37:48,-0.99,-4.74,8.519999499999999,0.0,-0.01,0.01,0.0,-0.01,0.01,3,Lying,4
2019-01-15,03:37:48,-0.66,-4.83,8.509999,0.0,-0.01,0.01,0.0,-0.01,0.01,3,Lying,4
2019-01-15,03:37:48,-0.66,-4.83,8.509999,0.02,-0.02,0.01,0.02,-0.02,0.01,3,Lying,4
2019-01-15,03:37:48,-0.68,-4.7799997,8.53,0.02,-0.02,0.01,0.02,-0.02,0.01,3,Lying,4
2019-01-15,03:37:48,-0.68,-4.7799997,8.53,0.03,-0.03,0.01,0.03,-0.03,0.01,3,Lying,4
2019-01-15,03:37:48,-0.63,-4.7,8.54,0.03,-0.03,0.01,0.03,-0.03,0.01,3,Lying,4
2019-01-15,03:37:48,-0.63,-4.7,8.54,0.02,-0.03,0.02,0.02,-0.03,0.02,3,Lying,4
2019-01-15,03:37:48,-0.57,-4.69,8.57,0.02,-0.03,0.02,0.02,-0.03,0.02,3,Lying,4
2019-01-15,03:37:48,-0.57,-4.69,8.57,0.02,-0.01,0.01,0.02,-0.01,0.01,3,Lying,4
2019-01-15,03:37:48,-0.64,-4.74,8.49,0.02,-0.01,0.01,0.02,-0.01,0.01,3,Lying,4
2019-01-15,03:37:48,-0.64,-4.74,8.49,0.01,0.0,0.02,0.01,0.0,0.02,3,Lying,4
2019-01-15,03:37:48,-0.6,-4.7,8.5,0.01,0.0,0.02,0.01,0.0,0.02,3,Lying,4
2019-01-15,03:37:48,-0.6,-4.7,8.5,0.0,-0.01,0.01,0.0,-0.01,0.01,3,Lying,4
2019-01-15,03:37:48,-0.7,-4.85,8.62,0.0,-0.01,0.01,0.0,-0.01,0.01,3,Lying,4
2019-01-15,03:37:48,-0.7,-4.85,8.62,0.01,0.0,0.0,0.01,0.0,0.0,3,Lying,4
2019-01-15,03:37:49,-0.85,-4.77,8.7,0.01,0.0,0.0,0.01,0.0,0.0,3,Lying,4
2019-01-15,03:37:49,-0.85,-4.77,8.7,0.049999997000000004,-0.02,0.0,0.049999997000000004,-0.02,0.0,3,Lying,4
2019-01-15,03:37:49,-0.63,-4.41,8.46,0.049999997000000004,-0.02,0.0,0.049999997000000004,-0.02,0.0,3,Lying,4
2019-01-15,03:37:49,-0.63,-4.41,8.46,0.09999999400000001,-0.12,0.0,0.09999999400000001,-0.12,0.0,3,Lying,4
2019-01-15,03:37:49,-0.51,-4.45,8.42,0.09999999400000001,-0.12,0.0,0.09999999400000001,-0.12,0.0,3,Lying,4
2019-01-15,03:37:49,-0.51,-4.45,8.42,0.089999996,-0.17,0.0,0.089999996,-0.17,0.0,3,Lying,4
2019-01-15,03:37:49,-0.35999998,-4.38,8.389999000000001,0.089999996,-0.17,0.0,0.089999996,-0.17,0.0,3,Lying,4
2019-01-15,03:37:49,-0.35999998,-4.38,8.389999000000001,0.0,-0.14999999,0.01,0.0,-0.14999999,0.01,3,Lying,4
2019-01-15,03:37:49,-0.29,-4.81,8.849999,0.0,-0.14999999,0.01,0.0,-0.14999999,0.01,3,Lying,4
2019-01-15,03:37:49,-0.29,-4.81,8.849999,-0.09999999400000001,0.04,0.09999999400000001,-0.09999999400000001,0.04,0.09999999400000001,3,Lying,4
2019-01-15,03:37:49,-1.04,-5.14,9.5,-0.09999999400000001,0.04,0.09999999400000001,-0.09999999400000001,0.04,0.09999999400000001,3,Lying,4
2019-01-15,03:37:49,-1.04,-5.14,9.5,-0.01,0.21,0.22,-0.01,0.21,0.22,3,Lying,4
2019-01-15,03:37:49,-1.31,-5.0499997,8.269999499999999,-0.01,0.21,0.22,-0.01,0.21,0.22,3,Lying,4
2019-01-15,03:37:49,-1.31,-5.0499997,8.269999499999999,0.45999998,0.01,0.28,0.45999998,0.01,0.28,3,Lying,4
2019-01-15,03:37:49,-0.87,-4.35,8.099999,0.45999998,0.01,0.28,0.45999998,0.01,0.28,3,Lying,4
2019-01-15,03:37:49,-0.87,-4.35,8.099999,0.48999998,-0.16,0.42,0.48999998,-0.16,0.42,3,Lying,4
2019-01-15,03:37:49,-0.49999997,-4.21,9.089999,0.48999998,-0.16,0.42,0.48999998,-0.16,0.42,3,Lying,4
2019-01-15,03:37:49,-0.49999997,-4.21,9.089999,0.22999999,-0.19,0.42999998,0.22999999,-0.19,0.42999998,3,Lying,4
2019-01-15,03:37:49,-0.88,-4.3,9.059999000000001,0.22999999,-0.19,0.42999998,0.22999999,-0.19,0.42999998,3,Lying,4
2019-01-15,03:37:49,-0.88,-4.3,9.059999000000001,0.37,-0.38,0.22,0.37,-0.38,0.22,3,Lying,4
2019-01-15,03:37:49,-0.41,-3.6699998,8.219999000000001,0.37,-0.38,0.22,0.37,-0.38,0.22,3,Lying,4
2019-01-15,03:37:49,-0.41,-3.6699998,8.219999000000001,0.56,-0.45,0.35,0.56,-0.45,0.35,3,Lying,4
2019-01-15,03:37:49,0.37,-3.55,8.389999000000001,0.56,-0.45,0.35,0.56,-0.45,0.35,3,Lying,4
2019-01-15,03:37:49,0.37,-3.55,8.389999000000001,0.31,-0.32999998,0.53,0.31,-0.32999998,0.53,3,Lying,4
2019-01-15,03:37:49,0.1,-4.54,9.769999499999999,0.31,-0.32999998,0.53,0.31,-0.32999998,0.53,3,Lying,4
2019-01-15,03:37:49,0.1,-4.54,9.769999499999999,0.19,-0.64,0.08,0.19,-0.64,0.08,3,Lying,4
2019-01-15,03:37:49,0.6999999,-4.1,9.36,0.19,-0.64,0.08,0.19,-0.64,0.08,3,Lying,4
2019-01-15,03:37:49,0.6999999,-4.1,9.36,0.61,-1.04,-0.17,0.61,-1.04,-0.17,3,Lying,4
2019-01-15,03:37:49,1.5999999,-3.11,9.089999,0.61,-1.04,-0.17,0.61,-1.04,-0.17,3,Lying,4
2019-01-15,03:37:49,1.5999999,-3.11,9.089999,0.9,-0.44,0.31,0.9,-0.44,0.31,3,Lying,4
2019-01-15,03:37:49,0.21,-3.24,9.44,0.91999996,-0.52,-0.12,0.91999996,-0.52,-0.12,3,Lying,4
2019-01-15,03:37:49,0.21,-3.24,9.44,0.91999996,-0.52,-0.12,0.91999996,-0.52,-0.12,3,Lying,4
2019-01-15,03:37:49,0.03,-2.32,9.269999499999999,0.91999996,-0.52,-0.12,0.91999996,-0.52,-0.12,3,Lying,4
2019-01-15,03:37:49,0.03,-2.32,9.269999499999999,1.25,-0.57,0.17,1.25,-0.57,0.17,3,Lying,4
2019-01-15,03:37:49,1.2399999,-1.43,9.17,1.25,-0.57,0.17,1.25,-0.57,0.17,3,Lying,4
2019-01-15,03:37:49,1.2399999,-1.43,9.17,1.24,-1.73,-0.22,1.24,-1.73,-0.22,3,Lying,4
2019-01-15,03:37:49,2.1999998,-0.76,8.839999,1.24,-1.73,-0.22,1.24,-1.73,-0.22,3,Lying,4
2019-01-15,03:37:49,2.1999998,-0.76,8.839999,1.15,-1.5999999,-0.14,1.15,-1.5999999,-0.14,3,Lying,4
2019-01-15,03:37:49,3.27,-0.39999998,8.15,1.15,-1.5999999,-0.14,1.15,-1.5999999,-0.14,3,Lying,4
2019-01-15,03:37:49,3.27,-0.39999998,8.15,1.09,-1.4599999,0.06,1.09,-1.4599999,0.06,3,Lying,4
2019-01-15,03:37:49,4.62,0.29000002,7.3999996,1.09,-1.4599999,0.06,1.09,-1.4599999,0.06,3,Lying,4
2019-01-15,03:37:49,4.62,0.29000002,7.3999996,0.91999996,-1.35,0.04,0.91999996,-1.35,0.04,3,Lying,4
2019-01-15,03:37:49,4.4500003,0.14999998,7.18,0.91999996,-1.35,0.04,0.91999996,-1.35,0.04,3,Lying,4
2019-01-15,03:37:49,4.4500003,0.14999998,7.18,0.68,-1.15,-0.17,0.68,-1.15,-0.17,3,Lying,4
2019-01-15,03:37:50,5.6800003,0.65999997,7.4199996,0.68,-1.15,-0.17,0.68,-1.15,-0.17,3,Lying,4
2019-01-15,03:37:50,5.6800003,0.65999997,7.4199996,0.53999996,-0.94,0.01,0.53999996,-0.94,0.01,3,Lying,4
2019-01-15,03:37:50,5.73,0.58000004,8.059999000000001,0.45,-0.62,0.04,0.45,-0.62,0.04,3,Lying,4
2019-01-15,03:37:50,5.73,0.58000004,8.059999000000001,0.45,-0.62,0.04,0.45,-0.62,0.04,3,Lying,4
2019-01-15,03:37:50,5.06,0.6,7.8199997,0.45,-0.62,0.04,0.45,-0.62,0.04,3,Lying,4
2019-01-15,03:37:50,5.06,0.6,7.8199997,0.48999998,-0.78999996,-0.37,0.48999998,-0.78999996,-0.37,3,Lying,4
2019-01-15,03:37:50,5.17,1.5699999,7.18,0.77,-0.9,-0.17,0.77,-0.9,-0.17,3,Lying,4
2019-01-15,03:37:50,5.17,1.5699999,7.18,0.77,-0.9,-0.17,0.77,-0.9,-0.17,3,Lying,4
2019-01-15,03:37:50,4.57,1.94,6.64,0.77,-0.9,-0.17,0.77,-0.9,-0.17,3,Lying,4
2019-01-15,03:37:50,4.57,1.94,6.64,0.72999996,-0.85999995,-0.22,0.72999996,-0.85999995,-0.22,3,Lying,4
2019-01-15,03:37:50,5.59,2.71,5.97,0.72999996,-0.85999995,-0.22,0.72999996,-0.85999995,-0.22,3,Lying,4
2019-01-15,03:37:50,5.59,2.71,5.97,0.77,-0.65999997,0.17,0.77,-0.65999997,0.17,3,Lying,4
2019-01-15,03:37:50,6.54,3.1,5.66,0.77,-0.65999997,0.17,0.77,-0.65999997,0.17,3,Lying,4
2019-01-15,03:37:50,6.54,3.1,5.66,0.64,-0.5,0.32,0.64,-0.5,0.32,3,Lying,4
2019-01-15,03:37:50,7.35,2.74,5.7599998,0.64,-0.5,0.32,0.64,-0.5,0.32,3,Lying,4
2019-01-15,03:37:50,7.35,2.74,5.7599998,0.42999998,-0.26999998,0.34,0.42999998,-0.26999998,0.34,3,Lying,4
2019-01-15,03:37:50,6.67,2.1,5.9999995,0.42999998,-0.26999998,0.34,0.42999998,-0.26999998,0.34,3,Lying,4
2019-01-15,03:37:50,6.67,2.1,5.9999995,0.39,-0.42,0.049999997000000004,0.39,-0.42,0.049999997000000004,3,Lying,4
2019-01-15,03:37:50,7.19,2.46,5.7,0.39,-0.42,0.049999997000000004,0.39,-0.42,0.049999997000000004,3,Lying,4
2019-01-15,03:37:50,7.19,2.46,5.7,0.48,-0.59,0.17999999,0.48,-0.59,0.17999999,3,Lying,4
2019-01-15,03:37:50,6.73,2.59,4.95,0.48,-0.59,0.17999999,0.48,-0.59,0.17999999,3,Lying,4
2019-01-15,03:37:50,6.73,2.59,4.95,0.5,-0.09999999400000001,0.21,0.5,-0.09999999400000001,0.21,3,Lying,4
2019-01-15,03:37:50,6.66,2.83,5.0099998,0.5,-0.09999999400000001,0.21,0.5,-0.09999999400000001,0.21,3,Lying,4
2019-01-15,03:37:50,6.66,2.83,5.0099998,0.39999998,-0.24,0.13,0.39999998,-0.24,0.13,3,Lying,4
2019-01-15,03:37:50,7.37,2.72,5.0699997,0.39999998,-0.24,0.13,0.39999998,-0.24,0.13,3,Lying,4
2019-01-15,03:37:50,7.37,2.72,5.0699997,0.37,-0.45,0.24,0.37,-0.45,0.24,3,Lying,4
2019-01-15,03:37:50,7.04,2.8,4.89,0.37,-0.45,0.24,0.37,-0.45,0.24,3,Lying,4
2019-01-15,03:37:50,7.04,2.8,4.89,0.22999999,-0.16,0.22999999,0.22999999,-0.16,0.22999999,3,Lying,4
2019-01-15,03:37:50,7.34,2.29,5.22,0.22999999,-0.16,0.22999999,0.22999999,-0.16,0.22999999,3,Lying,4
2019-01-15,03:37:50,7.34,2.29,5.22,0.14,-0.42,0.17999999,0.14,-0.42,0.17999999,3,Lying,4
2019-01-15,03:37:50,7.41,2.37,5.3099995,0.14,-0.42,0.17999999,0.14,-0.42,0.17999999,3,Lying,4
2019-01-15,03:37:50,7.41,2.37,5.3099995,0.14999999,-0.34,0.17999999,0.14999999,-0.34,0.17999999,3,Lying,4
2019-01-15,03:37:50,7.46,2.19,4.95,0.14999999,-0.34,0.17999999,0.14999999,-0.34,0.17999999,3,Lying,4
2019-01-15,03:37:50,7.46,2.19,4.95,0.22999999,-0.17999999,0.22,0.22999999,-0.17999999,0.22,3,Lying,4
2019-01-15,03:37:50,7.67,2.17,4.5899997,0.22999999,-0.17999999,0.22,0.22999999,-0.17999999,0.22,3,Lying,4
2019-01-15,03:37:50,7.67,2.17,4.5899997,0.32999998,-0.39,0.17999999,0.32999998,-0.39,0.17999999,3,Lying,4
2019-01-15,03:37:50,7.73,2.3799999,3.95,0.32999998,-0.39,0.17999999,0.32999998,-0.39,0.17999999,3,Lying,4
2019-01-15,03:37:50,7.73,2.3799999,3.95,0.32999998,-0.26999998,0.25,0.32999998,-0.26999998,0.25,3,Lying,4
2019-01-15,03:37:50,7.79,2.3799999,3.9599998,0.32999998,-0.26999998,0.25,0.32999998,-0.26999998,0.25,3,Lying,4
2019-01-15,03:37:50,7.79,2.3799999,3.9599998,0.26,-0.21,0.25,0.26,-0.21,0.25,3,Lying,4
2019-01-15,03:37:50,8.179999,2.11,3.9799998,0.26,-0.21,0.25,0.26,-0.21,0.25,3,Lying,4
2019-01-15,03:37:50,8.179999,2.11,3.9799998,0.21,-0.31,0.22999999,0.21,-0.31,0.22999999,3,Lying,4
2019-01-15,03:37:50,8.07,2.34,3.58,0.21,-0.31,0.22999999,0.21,-0.31,0.22999999,3,Lying,4
2019-01-15,03:37:50,8.07,2.34,3.58,0.21,-0.08,0.21,0.21,-0.08,0.21,3,Lying,4
2019-01-15,03:37:51,8.37,2.21,3.71,0.21,-0.08,0.21,0.21,-0.08,0.21,3,Lying,4
2019-01-15,03:37:51,8.37,2.21,3.71,0.22,-0.26999998,0.21,0.22,-0.26999998,0.21,3,Lying,4
2019-01-15,03:37:51,8.389999000000001,2.11,3.97,0.22,-0.26999998,0.21,0.22,-0.26999998,0.21,3,Lying,4
2019-01-15,03:37:51,8.389999000000001,2.11,3.97,0.17,-0.22,0.17999999,0.17,-0.22,0.17999999,3,Lying,4
2019-01-15,03:37:51,8.099999,2.1399999,3.61,0.17,-0.22,0.17999999,0.17,-0.22,0.17999999,3,Lying,4
2019-01-15,03:37:51,8.099999,2.1399999,3.61,0.17,-0.14999999,0.17999999,0.17,-0.14999999,0.17999999,3,Lying,4
2019-01-15,03:37:51,8.37,2.25,3.28,0.17,-0.14999999,0.17999999,0.17,-0.14999999,0.17999999,3,Lying,4
2019-01-15,03:37:51,8.37,2.25,3.28,0.12,-0.19999999,0.19999999,0.12,-0.19999999,0.19999999,3,Lying,4
2019-01-15,03:37:51,8.5,2.33,3.05,0.12,-0.19999999,0.19999999,0.12,-0.19999999,0.19999999,3,Lying,4
2019-01-15,03:37:51,8.5,2.33,3.05,-0.01,0.0,0.22,-0.01,0.0,0.22,3,Lying,4
2019-01-15,03:37:51,8.419999,1.9099998,3.06,0.01,-0.08,0.14999999,0.01,-0.08,0.14999999,3,Lying,4
2019-01-15,03:37:51,8.419999,1.9099998,3.06,0.01,-0.08,0.14999999,0.01,-0.08,0.14999999,3,Lying,4
2019-01-15,03:37:51,8.74,1.79,3.1299999,0.01,-0.08,0.14999999,0.01,-0.08,0.14999999,3,Lying,4
2019-01-15,03:37:51,8.74,1.79,3.1299999,-0.01,0.0,0.16,-0.01,0.0,0.16,3,Lying,4
2019-01-15,03:37:51,8.849999,1.8199999,3.21,-0.049999997000000004,0.04,0.12,-0.049999997000000004,0.04,0.12,3,Lying,4
2019-01-15,03:37:51,8.849999,1.8199999,3.21,-0.049999997000000004,0.04,0.12,-0.049999997000000004,0.04,0.12,3,Lying,4
2019-01-15,03:37:51,8.769999499999999,1.6199999,3.48,-0.049999997000000004,0.04,0.12,-0.049999997000000004,0.04,0.12,3,Lying,4
2019-01-15,03:37:51,8.769999499999999,1.6199999,3.48,-0.049999997000000004,-0.02,0.04,-0.049999997000000004,-0.02,0.04,3,Lying,4
2019-01-15,03:37:51,8.549999,1.47,3.6,-0.049999997000000004,-0.02,0.04,-0.049999997000000004,-0.02,0.04,3,Lying,4
2019-01-15,03:37:51,8.549999,1.47,3.6,-0.08,0.01,0.0,-0.08,0.01,0.0,3,Lying,4
2019-01-15,03:37:51,8.519999499999999,1.6499999,3.59,-0.08,0.01,0.0,-0.08,0.01,0.0,3,Lying,4
2019-01-15,03:37:51,8.519999499999999,1.6499999,3.59,-0.03,0.01,0.0,-0.03,0.01,0.0,3,Lying,4
2019-01-15,03:37:51,8.349999,1.71,3.51,-0.03,0.01,0.0,-0.03,0.01,0.0,3,Lying,4
2019-01-15,03:37:51,8.349999,1.71,3.51,-0.02,0.0,-0.02,-0.02,0.0,-0.02,3,Lying,4
2019-01-15,03:37:51,8.469999000000001,1.8,3.52,-0.02,0.0,-0.02,-0.02,0.0,-0.02,3,Lying,4
2019-01-15,03:37:51,8.469999000000001,1.8,3.52,-0.02,0.0,-0.01,-0.02,0.0,-0.01,3,Lying,4
2019-01-15,03:37:51,8.53,1.8499999,3.33,-0.04,0.08,0.01,-0.04,0.08,0.01,3,Lying,4
2019-01-15,03:37:51,8.53,1.8499999,3.33,-0.04,0.08,0.01,-0.04,0.08,0.01,3,Lying,4
2019-01-15,03:37:51,8.54,1.6700001,3.43,-0.04,0.08,0.01,-0.04,0.08,0.01,3,Lying,4
2019-01-15,03:37:51,8.54,1.6700001,3.43,-0.089999996,0.01,-0.01,-0.089999996,0.01,-0.01,3,Lying,4
2019-01-15,03:37:51,8.48,1.6299999,3.6,-0.089999996,0.01,-0.01,-0.089999996,0.01,-0.01,3,Lying,4
2019-01-15,03:37:51,8.48,1.6299999,3.6,-0.09999999400000001,0.03,-0.02,-0.09999999400000001,0.03,-0.02,3,Lying,4
2019-01-15,03:37:51,8.37,1.75,3.61,-0.09999999400000001,0.03,-0.02,-0.09999999400000001,0.03,-0.02,3,Lying,4
2019-01-15,03:37:51,8.37,1.75,3.61,-0.11,0.08,0.0,-0.11,0.08,0.0,3,Lying,4
2019-01-15,03:37:51,8.44,1.72,3.72,-0.11,0.08,0.0,-0.11,0.08,0.0,3,Lying,4
2019-01-15,03:37:51,8.44,1.72,3.72,-0.09999999400000001,-0.01,-0.01,-0.09999999400000001,-0.01,-0.01,3,Lying,4
2019-01-15,03:37:51,8.45,1.76,3.75,-0.07,-0.07,-0.02,-0.07,-0.07,-0.02,3,Lying,4
2019-01-15,03:37:51,8.45,1.76,3.75,-0.07,-0.07,-0.02,-0.07,-0.07,-0.02,3,Lying,4
2019-01-15,03:37:51,8.389999000000001,1.73,3.62,-0.07,-0.07,-0.02,-0.07,-0.07,-0.02,3,Lying,4
2019-01-15,03:37:51,8.389999000000001,1.73,3.62,-0.06,0.09999999400000001,0.0,-0.06,0.09999999400000001,0.0,3,Lying,4
2019-01-15,03:37:52,8.599999,1.6800001,3.7,-0.06,0.09999999400000001,0.0,-0.06,0.09999999400000001,0.0,3,Lying,4
2019-01-15,03:37:52,8.599999,1.6800001,3.7,-0.09999999400000001,0.21,0.02,-0.09999999400000001,0.21,0.02,3,Lying,4
2019-01-15,03:37:52,7.71,1.5899999,3.74,-0.09999999400000001,0.21,0.02,-0.09999999400000001,0.21,0.02,3,Lying,4
2019-01-15,03:37:52,7.71,1.5899999,3.74,-0.16,0.58,0.08,-0.16,0.58,0.08,3,Lying,4
2019-01-15,03:37:52,8.11,1.34,4.2999997,-0.16,0.58,0.08,-0.16,0.58,0.08,3,Lying,4
2019-01-15,03:37:52,8.11,1.34,4.2999997,-0.16,0.04,-0.02,-0.16,0.04,-0.02,3,Lying,4
2019-01-15,03:37:52,8.69,1.38,4.37,-0.16,0.04,-0.02,-0.16,0.04,-0.02,3,Lying,4
2019-01-15,03:37:52,8.69,1.38,4.37,-0.08,-0.22,0.03,-0.08,-0.22,0.03,3,Lying,4
2019-01-15,03:37:52,8.11,1.74,3.9999998,-0.01,0.08,-0.02,-0.01,0.08,-0.02,3,Lying,4
2019-01-15,03:37:52,8.11,1.74,3.9999998,-0.01,0.08,-0.02,-0.01,0.08,-0.02,3,Lying,4
2019-01-15,03:37:52,8.2,1.6299999,4.1299996,-0.01,0.08,-0.02,-0.01,0.08,-0.02,3,Lying,4
2019-01-15,03:37:52,8.2,1.6299999,4.1299996,-0.07,-0.09999999400000001,-0.049999997000000004,-0.07,-0.09999999400000001,-0.049999997000000004,3,Lying,4
2019-01-15,03:37:52,8.179999,1.69,4.1099997,-0.07,-0.09999999400000001,-0.049999997000000004,-0.07,-0.09999999400000001,-0.049999997000000004,3,Lying,4
2019-01-15,03:37:52,8.179999,1.69,4.1099997,-0.049999997000000004,-0.03,0.0,-0.049999997000000004,-0.03,0.0,3,Lying,4
2019-01-15,03:37:52,8.24,1.54,4.2699995,-0.049999997000000004,-0.03,0.0,-0.049999997000000004,-0.03,0.0,3,Lying,4
2019-01-15,03:37:52,8.24,1.54,4.2699995,-0.03,-0.03,0.0,-0.03,-0.03,0.0,3,Lying,4
2019-01-15,03:37:52,8.089999,1.5899999,4.0299997,-0.03,-0.03,0.0,-0.03,-0.03,0.0,3,Lying,4
2019-01-15,03:37:52,8.089999,1.5899999,4.0299997,0.0,0.04,0.0,0.0,0.04,0.0,3,Lying,4
2019-01-15,03:37:52,8.419999,1.6800001,3.8999998999999996,0.0,0.04,0.0,0.0,0.04,0.0,3,Lying,4
2019-01-15,03:37:52,8.419999,1.6800001,3.8999998999999996,0.0,-0.049999997000000004,0.03,0.0,-0.049999997000000004,0.03,3,Lying,4
2019-01-15,03:37:52,8.349999,1.6299999,3.8899998999999994,0.0,-0.049999997000000004,0.03,0.0,-0.049999997000000004,0.03,3,Lying,4
2019-01-15,03:37:52,8.349999,1.6299999,3.8899998999999994,-0.01,0.01,0.02,-0.01,0.01,0.02,3,Lying,4
2019-01-15,03:37:52,8.19,1.4599999,3.9599998,-0.01,0.01,0.02,-0.01,0.01,0.02,3,Lying,4
2019-01-15,03:37:52,8.19,1.4599999,3.9599998,-0.02,0.01,0.01,-0.02,0.01,0.01,3,Lying,4
2019-01-15,03:37:52,8.28,1.55,4.18,-0.02,0.01,0.01,-0.02,0.01,0.01,3,Lying,4
2019-01-15,03:37:52,8.28,1.55,4.18,-0.02,-0.06,0.02,-0.02,-0.06,0.02,3,Lying,4
2019-01-15,03:37:52,8.11,1.4499999,4.06,-0.02,-0.06,0.02,-0.02,-0.06,0.02,3,Lying,4
2019-01-15,03:37:52,8.11,1.4499999,4.06,-0.01,0.01,0.02,-0.01,0.01,0.02,3,Lying,4
2019-01-15,03:37:52,8.41,1.54,4.0699997,-0.01,0.01,0.02,-0.01,0.01,0.02,3,Lying,4
2019-01-15,03:37:52,8.41,1.54,4.0699997,0.01,-0.06,0.04,0.01,-0.06,0.04,3,Lying,4
2019-01-15,03:37:52,8.209999,1.52,3.97,0.01,-0.06,0.04,0.01,-0.06,0.04,3,Lying,4
2019-01-15,03:37:52,8.209999,1.52,3.97,0.02,0.0,0.04,0.02,0.0,0.04,3,Lying,4
2019-01-15,03:37:52,8.33,1.41,3.94,0.02,0.0,0.04,0.02,0.0,0.04,3,Lying,4
2019-01-15,03:37:52,8.33,1.41,3.94,0.01,-0.03,0.04,0.01,-0.03,0.04,3,Lying,4
2019-01-15,03:37:52,8.28,1.43,3.8,0.01,-0.03,0.04,0.01,-0.03,0.04,3,Lying,4
2019-01-15,03:37:52,8.28,1.43,3.8,0.03,-0.02,0.03,0.03,-0.02,0.03,3,Lying,4
2019-01-15,03:37:52,8.41,1.52,3.76,0.03,-0.02,0.03,0.03,-0.02,0.03,3,Lying,4
2019-01-15,03:37:52,8.41,1.52,3.76,0.0,-0.02,0.049999997000000004,0.0,-0.02,0.049999997000000004,3,Lying,4
2019-01-15,03:37:52,8.349999,1.4599999,3.82,0.0,-0.02,0.049999997000000004,0.0,-0.02,0.049999997000000004,3,Lying,4
2019-01-15,03:37:52,8.349999,1.4599999,3.82,-0.02,0.0,0.049999997000000004,-0.02,0.0,0.049999997000000004,3,Lying,4
2019-01-15,03:37:52,8.33,1.38,3.99,-0.02,0.0,0.049999997000000004,-0.02,0.0,0.049999997000000004,3,Lying,4
2019-01-15,03:37:52,8.33,1.38,3.99,-0.049999997000000004,0.049999997000000004,0.03,-0.049999997000000004,0.049999997000000004,0.03,3,Lying,4
2019-01-15,03:37:52,8.509999,1.4599999,4.0499997,-0.049999997000000004,0.049999997000000004,0.03,-0.049999997000000004,0.049999997000000004,0.03,3,Lying,4
2019-01-15,03:37:52,8.509999,1.4599999,4.0499997,-0.02,-0.02,0.01,-0.02,-0.02,0.01,3,Lying,4
2019-01-15,03:37:52,8.29,1.52,3.92,-0.02,-0.02,0.01,-0.02,-0.02,0.01,3,Lying,4
2019-01-15,03:37:53,8.29,1.52,3.92,-0.02,0.02,0.0,-0.02,0.02,0.0,3,Lying,4
2019-01-15,03:37:53,8.36,1.48,4.14,-0.02,0.02,0.0,-0.02,0.02,0.0,3,Lying,4
2019-01-15,03:37:53,8.36,1.48,4.14,-0.02,0.0,0.01,-0.02,0.0,0.01,3,Lying,4
2019-01-15,03:37:53,8.2,1.3299999,3.99,-0.02,0.0,0.01,-0.02,0.0,0.01,3,Lying,4
2019-01-15,03:37:53,8.2,1.3299999,3.99,0.0,0.02,0.0,0.0,0.02,0.0,3,Lying,4
2019-01-15,03:37:53,8.2,1.52,3.92,0.0,0.02,0.0,0.0,0.02,0.0,3,Lying,4
2019-01-15,03:37:53,8.2,1.52,3.92,0.0,0.049999997000000004,0.03,0.0,0.049999997000000004,0.03,3,Lying,4
2019-01-15,03:37:53,8.28,1.4499999,4.08,0.0,0.049999997000000004,0.03,0.0,0.049999997000000004,0.03,3,Lying,4
2019-01-15,03:37:53,8.28,1.4499999,4.08,-0.03,0.02,0.04,-0.03,0.02,0.04,3,Lying,4
2019-01-15,03:37:53,8.29,1.28,4.08,-0.03,0.02,0.04,-0.03,0.02,0.04,3,Lying,4
2019-01-15,03:37:53,8.29,1.28,4.08,-0.06,-0.01,0.03,-0.06,-0.01,0.03,3,Lying,4
2019-01-15,03:37:53,8.419999,1.3299999,4.14,-0.06,-0.01,0.03,-0.06,-0.01,0.03,3,Lying,4
2019-01-15,03:37:53,8.419999,1.3299999,4.14,-0.04,-0.01,0.03,-0.04,-0.01,0.03,3,Lying,4
2019-01-15,03:37:53,8.349999,1.27,4.0899997,-0.04,-0.01,0.03,-0.04,-0.01,0.03,3,Lying,4
2019-01-15,03:37:53,8.349999,1.27,4.0899997,-0.02,0.02,0.0,-0.02,0.02,0.0,3,Lying,4
2019-01-15,03:37:53,8.299999,1.17,4.14,-0.02,0.02,0.0,-0.02,0.02,0.0,3,Lying,4
2019-01-15,03:37:53,8.299999,1.17,4.14,-0.02,0.06,0.01,-0.02,0.06,0.01,3,Lying,4
2019-01-15,03:37:53,8.349999,1.24,4.16,-0.02,0.06,0.01,-0.02,0.06,0.01,3,Lying,4
2019-01-15,03:37:53,8.349999,1.24,4.16,0.0,0.049999997000000004,0.0,0.0,0.049999997000000004,0.0,3,Lying,4
2019-01-15,03:37:53,8.2,1.43,3.9999998,0.0,0.049999997000000004,0.0,0.0,0.049999997000000004,0.0,3,Lying,4
2019-01-15,03:37:53,8.2,1.43,3.9999998,-0.01,0.03,0.03,-0.01,0.03,0.03,3,Lying,4
2019-01-15,03:37:53,8.44,1.43,4.0699997,-0.01,0.03,0.03,-0.01,0.03,0.03,3,Lying,4
2019-01-15,03:37:53,8.44,1.43,4.0699997,-0.049999997000000004,-0.06,0.03,-0.049999997000000004,-0.06,0.03,3,Lying,4
2019-01-15,03:37:53,8.339999,1.4499999,4.0499997,-0.049999997000000004,-0.06,0.03,-0.049999997000000004,-0.06,0.03,3,Lying,4
2019-01-15,03:37:53,8.339999,1.4499999,4.0499997,-0.089999996,0.11,0.049999997000000004,-0.089999996,0.11,0.049999997000000004,3,Lying,4
2019-01-15,03:37:53,8.23,1.41,4.06,-0.089999996,0.11,0.049999997000000004,-0.089999996,0.11,0.049999997000000004,3,Lying,4
2019-01-15,03:37:53,8.23,1.41,4.06,-0.12,0.26,0.07,-0.12,0.26,0.07,3,Lying,4
2019-01-15,03:37:53,8.2,1.14,4.37,-0.12,0.26,0.07,-0.12,0.26,0.07,3,Lying,4
2019-01-15,03:37:53,8.2,1.14,4.37,-0.19,0.16,0.02,-0.19,0.16,0.02,3,Lying,4
2019-01-15,03:37:53,8.28,1.0699999,4.5299997,-0.19,0.16,0.02,-0.19,0.16,0.02,3,Lying,4
2019-01-15,03:37:53,8.28,1.0699999,4.5299997,-0.22999999,0.32,0.02,-0.22999999,0.32,0.02,3,Lying,4
2019-01-15,03:37:53,8.23,1.09,4.5399995,-0.22999999,0.32,0.02,-0.22999999,0.32,0.02,3,Lying,4
2019-01-15,03:37:53,8.23,1.09,4.5399995,-0.25,0.45,0.0,-0.25,0.45,0.0,3,Lying,4
2019-01-15,03:37:53,8.209999,0.93999994,4.97,-0.25,0.45,0.0,-0.25,0.45,0.0,3,Lying,4
2019-01-15,03:37:53,8.209999,0.93999994,4.97,-0.26999998,0.22999999,-0.11,-0.26999998,0.22999999,-0.11,3,Lying,4
2019-01-15,03:37:53,7.89,0.89,5.0299997,-0.26999998,0.22999999,-0.11,-0.26999998,0.22999999,-0.11,3,Lying,4
2019-01-15,03:37:53,7.89,0.89,5.0299997,-0.24,0.26999998,-0.16,-0.24,0.26999998,-0.16,3,Lying,4
2019-01-15,03:37:53,7.56,0.93999994,5.0599995,-0.24,0.26999998,-0.16,-0.24,0.26999998,-0.16,3,Lying,4
2019-01-15,03:37:53,7.56,0.93999994,5.0599995,-0.25,0.29,-0.14999999,-0.25,0.29,-0.14999999,3,Lying,4
2019-01-15,03:37:53,7.240000200000001,0.93999994,5.14,-0.25,0.29,-0.14999999,-0.25,0.29,-0.14999999,3,Lying,4
2019-01-15,03:37:53,7.240000200000001,0.93999994,5.14,-0.29,0.19999999,-0.14999999,-0.29,0.19999999,-0.14999999,3,Lying,4
2019-01-15,03:37:53,7.45,1.0799999,5.2999997,-0.29,0.19999999,-0.14999999,-0.29,0.19999999,-0.14999999,3,Lying,4
2019-01-15,03:37:54,7.45,1.0799999,5.2999997,-0.35999998,0.47,-0.01,-0.35999998,0.47,-0.01,3,Lying,4
2019-01-15,03:37:54,7.35,0.83000004,5.3799996,-0.35999998,0.47,-0.01,-0.35999998,0.47,-0.01,3,Lying,4
2019-01-15,03:37:54,7.35,0.83000004,5.3799996,-0.45,0.89,0.04,-0.45,0.89,0.04,3,Lying,4
2019-01-15,03:37:54,6.83,0.3,6.1899996,-0.45,0.89,0.04,-0.45,0.89,0.04,3,Lying,4
2019-01-15,03:37:54,6.83,0.3,6.1899996,-0.59,0.59,-0.049999997000000004,-0.59,0.59,-0.049999997000000004,3,Lying,4
2019-01-15,03:37:54,7.54,0.01999998,6.809999499999999,-0.59,0.59,-0.049999997000000004,-0.59,0.59,-0.049999997000000004,3,Lying,4
2019-01-15,03:37:54,7.54,0.01999998,6.809999499999999,-0.59999996,0.09999999400000001,-0.08,-0.59999996,0.09999999400000001,-0.08,3,Lying,4
2019-01-15,03:37:54,6.61,0.04000002,6.809999499999999,-0.59999996,0.09999999400000001,-0.08,-0.59999996,0.09999999400000001,-0.08,3,Lying,4
2019-01-15,03:37:54,6.61,0.04000002,6.809999499999999,-0.48999998,0.71999997,-0.089999996,-0.48999998,0.71999997,-0.089999996,3,Lying,4
2019-01-15,03:37:54,6.31,-0.13,7.099999400000001,-0.48999998,0.71999997,-0.089999996,-0.48999998,0.71999997,-0.089999996,3,Lying,4
2019-01-15,03:37:54,6.31,-0.13,7.099999400000001,-0.48,0.79999995,-0.03,-0.48,0.79999995,-0.03,3,Lying,4
2019-01-15,03:37:54,5.35,0.29000002,6.7,-0.48,0.79999995,-0.03,-0.48,0.79999995,-0.03,3,Lying,4
2019-01-15,03:37:54,5.35,0.29000002,6.7,-0.37,0.94,-0.01,-0.37,0.94,-0.01,3,Lying,4
2019-01-15,03:37:54,4.4700003,0.26,7.14,-0.37,0.94,-0.01,-0.37,0.94,-0.01,3,Lying,4
2019-01-15,03:37:54,4.4700003,0.26,7.14,-0.53,0.81,0.0,-0.53,0.81,0.0,3,Lying,4
2019-01-15,03:37:54,5.38,-0.84,8.4,-0.53,0.81,0.0,-0.53,0.81,0.0,3,Lying,4
2019-01-15,03:37:54,5.38,-0.84,8.4,-1.02,0.32999998,0.22999999,-1.02,0.32999998,0.22999999,3,Lying,4
2019-01-15,03:37:54,5.4500003,-1.17,8.53,-1.02,0.32999998,0.22999999,-1.02,0.32999998,0.22999999,3,Lying,4
2019-01-15,03:37:54,5.4500003,-1.17,8.53,-0.91999996,0.22,0.14999999,-0.91999996,0.22,0.14999999,3,Lying,4
2019-01-15,03:37:54,5.58,-1.28,8.129999,-0.91999996,0.22,0.14999999,-0.91999996,0.22,0.14999999,3,Lying,4
2019-01-15,03:37:54,5.58,-1.28,8.129999,-0.45,0.07,-0.04,-0.45,0.07,-0.04,3,Lying,4
2019-01-15,03:37:54,6.29,-1.26,7.7799997,-0.45,0.07,-0.04,-0.45,0.07,-0.04,3,Lying,4
2019-01-15,03:37:54,6.29,-1.26,7.7799997,-0.24,0.17,0.08,-0.24,0.17,0.08,3,Lying,4
2019-01-15,03:37:54,6.61,-0.84,7.3299994,-0.24,0.17,0.08,-0.24,0.17,0.08,3,Lying,4
2019-01-15,03:37:54,6.61,-0.84,7.3299994,-0.19999999,0.45,0.12,-0.19999999,0.45,0.12,3,Lying,4
2019-01-15,03:37:54,5.53,-1.3199999,7.3599997,-0.19999999,0.45,0.12,-0.19999999,0.45,0.12,3,Lying,4
2019-01-15,03:37:54,5.53,-1.3199999,7.3599997,-0.19,0.84999996,0.04,-0.19,0.84999996,0.04,3,Lying,4
2019-01-15,03:37:54,4.88,-1.3599999,7.7299995,-0.19,0.84999996,0.04,-0.19,0.84999996,0.04,3,Lying,4
2019-01-15,03:37:54,4.88,-1.3599999,7.7299995,-0.26,1.04,0.0,-0.26,1.04,0.0,3,Lying,4
2019-01-15,03:37:54,4.2400002,-1.6999999,7.89,-0.26,1.04,0.0,-0.26,1.04,0.0,3,Lying,4
2019-01-15,03:37:54,4.2400002,-1.6999999,7.89,-0.29,0.63,-0.22999999,-0.29,0.63,-0.22999999,3,Lying,4
2019-01-15,03:37:54,4.29,-1.9799999,8.21,-0.29,0.63,-0.22999999,-0.29,0.63,-0.22999999,3,Lying,4
2019-01-15,03:37:54,4.29,-1.9799999,8.21,-0.31,-0.06,-0.45,-0.31,-0.06,-0.45,3,Lying,4
2019-01-15,03:37:54,4.71,-2.05,8.309999000000001,-0.31,-0.06,-0.45,-0.31,-0.06,-0.45,3,Lying,4
2019-01-15,03:37:54,4.71,-2.05,8.309999000000001,-0.24,-0.13,-0.42,-0.24,-0.13,-0.42,3,Lying,4
2019-01-15,03:37:54,4.26,-2.06,8.11,-0.24,-0.13,-0.42,-0.24,-0.13,-0.42,3,Lying,4
2019-01-15,03:37:54,4.26,-2.06,8.11,-0.17999999,0.06,-0.44,-0.17999999,0.06,-0.44,3,Lying,4
2019-01-15,03:37:54,4.29,-1.79,8.2,-0.17999999,0.06,-0.44,-0.17999999,0.06,-0.44,3,Lying,4
2019-01-15,03:37:54,4.29,-1.79,8.2,-0.16,0.049999997000000004,-0.34,-0.16,0.049999997000000004,-0.34,3,Lying,4
2019-01-15,03:37:54,4.29,-1.5699999,8.009999,-0.16,0.049999997000000004,-0.34,-0.16,0.049999997000000004,-0.34,3,Lying,4
2019-01-15,03:37:54,4.29,-1.5699999,8.009999,-0.13,0.14,-0.29,-0.13,0.14,-0.29,3,Lying,4
2019-01-15,03:37:54,3.7099998,-1.5,7.7999997,-0.13,0.14,-0.29,-0.13,0.14,-0.29,3,Lying,4
2019-01-15,03:37:54,3.7099998,-1.5,7.7999997,-0.17,0.26,-0.31,-0.17,0.26,-0.31,3,Lying,4
2019-01-15,03:37:54,3.62,-1.5,8.179999,-0.17,0.26,-0.31,-0.17,0.26,-0.31,3,Lying,4
2019-01-15,03:37:54,3.62,-1.5,8.179999,-0.29,0.38,-0.22,-0.29,0.38,-0.22,3,Lying,4
2019-01-15,03:37:55,3.35,-1.61,7.99,-0.29,0.38,-0.22,-0.29,0.38,-0.22,3,Lying,4
2019-01-15,03:37:55,3.35,-1.61,7.99,-0.31,0.94,-0.01,-0.31,0.94,-0.01,3,Lying,4
2019-01-15,03:37:55,3.37,-1.53,7.8799996,-0.31,0.94,-0.01,-0.31,0.94,-0.01,3,Lying,4
2019-01-15,03:37:55,3.37,-1.53,7.8799996,-0.42,1.26,0.13,-0.42,1.26,0.13,3,Lying,4
2019-01-15,03:37:55,2.6799998,-1.51,8.219999000000001,-0.42,1.26,0.13,-0.42,1.26,0.13,3,Lying,4
2019-01-15,03:37:55,2.6799998,-1.51,8.219999000000001,-0.62,1.35,0.049999997000000004,-0.62,1.35,0.049999997000000004,3,Lying,4
2019-01-15,03:37:55,2.52,-2.28,8.719999000000001,-0.62,1.35,0.049999997000000004,-0.62,1.35,0.049999997000000004,3,Lying,4
2019-01-15,03:37:55,2.52,-2.28,8.719999000000001,-0.81,0.85999995,-0.07,-0.81,0.85999995,-0.07,3,Lying,4
2019-01-15,03:37:55,2.24,-2.96,8.759999,-0.81,0.85999995,-0.07,-0.81,0.85999995,-0.07,3,Lying,4
2019-01-15,03:37:55,2.24,-2.96,8.759999,-0.7,0.5,-0.21,-0.7,0.5,-0.21,3,Lying,4
2019-01-15,03:37:55,0.84,-3.74,7.5499997,-0.7,0.5,-0.21,-0.7,0.5,-0.21,3,Lying,4
2019-01-15,03:37:55,0.84,-3.74,7.5499997,-0.71999997,0.39,-0.29,-0.71999997,0.39,-0.29,3,Lying,4
2019-01-15,03:37:55,0.29999998,-3.75,6.8599997,-0.71999997,0.39,-0.29,-0.71999997,0.39,-0.29,3,Lying,4
2019-01-15,03:37:55,0.29999998,-3.75,6.8599997,-0.72999996,0.37,-0.21,-0.72999996,0.37,-0.21,3,Lying,4
2019-01-15,03:37:55,-0.81,-4.14,7.6299996,-0.72999996,0.37,-0.21,-0.72999996,0.37,-0.21,3,Lying,4
2019-01-15,03:37:55,-0.81,-4.14,7.6299996,-1.4399998999999999,-0.17999999,0.07,-1.4399998999999999,-0.17999999,0.07,3,Lying,4
2019-01-15,03:37:55,4.34,-8.629999,15.9,-1.4399998999999999,-0.17999999,0.07,-1.4399998999999999,-0.17999999,0.07,3,Lying,4
2019-01-15,03:37:55,4.34,-8.629999,15.9,-2.59,-0.96999997,0.90999997,-2.59,-0.96999997,0.90999997,3,Lying,4
2019-01-15,03:37:55,0.87999994,-6.47,9.059999000000001,-2.59,-0.96999997,0.90999997,-2.59,-0.96999997,0.90999997,3,Lying,4
2019-01-15,03:37:55,0.87999994,-6.47,9.059999000000001,0.049999997000000004,-0.07,0.28,0.049999997000000004,-0.07,0.28,3,Lying,4
2019-01-15,03:37:55,3.4199998,-3.6,6.87,1.3,-0.78999996,0.24,1.3,-0.78999996,0.24,3,Lying,4
2019-01-15,03:37:55,3.4199998,-3.6,6.87,1.3,-0.78999996,0.24,1.3,-0.78999996,0.24,3,Lying,4
2019-01-15,03:37:55,2.9499998,-4.45,8.03,1.3,-0.78999996,0.24,1.3,-0.78999996,0.24,3,Lying,4
2019-01-15,03:37:55,2.9499998,-4.45,8.03,-0.01,-0.26999998,0.02,-0.01,-0.26999998,0.02,3,Lying,4
2019-01-15,03:37:55,2.6299999,-4.96,8.929999,-0.01,-0.26999998,0.02,-0.01,-0.26999998,0.02,3,Lying,4
2019-01-15,03:37:55,2.6299999,-4.96,8.929999,-0.55,0.81,0.88,-0.55,0.81,0.88,3,Lying,4
2019-01-15,03:37:55,0.45,-4.99,8.679999,-0.55,0.81,0.88,-0.55,0.81,0.88,3,Lying,4
2019-01-15,03:37:55,0.45,-4.99,8.679999,-0.22999999,1.25,0.90999997,-0.22999999,1.25,0.90999997,3,Lying,4
2019-01-15,03:37:55,-0.31,-4.7,8.36,-0.22999999,1.25,0.90999997,-0.22999999,1.25,0.90999997,3,Lying,4
2019-01-15,03:37:55,-0.31,-4.7,8.36,-0.08,1.0699999,0.77,-0.08,1.0699999,0.77,3,Lying,4
2019-01-15,03:37:55,-0.96,-4.58,8.519999499999999,-0.08,1.0699999,0.77,-0.08,1.0699999,0.77,3,Lying,4
2019-01-15,03:37:55,-0.96,-4.58,8.519999499999999,0.08,0.47,0.39999998,0.08,0.47,0.39999998,3,Lying,4
2019-01-15,03:37:55,-0.57,-4.14,8.48,0.08,0.47,0.39999998,0.08,0.47,0.39999998,3,Lying,4
2019-01-15,03:37:55,-0.57,-4.14,8.48,-0.02,0.19999999,0.31,-0.02,0.19999999,0.31,3,Lying,4
2019-01-15,03:37:55,0.54999995,-4.38,8.059999000000001,-0.089999996,-0.04,0.22,-0.089999996,-0.04,0.22,3,Lying,4
2019-01-15,03:37:55,0.54999995,-4.38,8.059999000000001,-0.089999996,-0.04,0.22,-0.089999996,-0.04,0.22,3,Lying,4
2019-01-15,03:37:55,1.53,-4.43,7.7499994999999995,-0.089999996,-0.04,0.22,-0.089999996,-0.04,0.22,3,Lying,4
2019-01-15,03:37:55,1.53,-4.43,7.7499994999999995,-0.04,-0.65999997,-0.26999998,-0.04,-0.65999997,-0.26999998,3,Lying,4
2019-01-15,03:37:55,2.82,-5.3399997,8.349999,-0.04,-0.65999997,-0.26999998,-0.04,-0.65999997,-0.26999998,3,Lying,4
2019-01-15,03:37:55,2.82,-5.3399997,8.349999,-0.21,-0.88,-0.61,-0.21,-0.88,-0.61,3,Lying,4
2019-01-15,03:37:55,3.26,-5.75,8.49,-0.21,-0.88,-0.61,-0.21,-0.88,-0.61,3,Lying,4
2019-01-15,03:37:55,3.26,-5.75,8.49,-0.25,-0.48,-0.5,-0.25,-0.48,-0.5,3,Lying,4
2019-01-15,03:37:56,3.11,-5.72,8.179999,-0.25,-0.48,-0.5,-0.25,-0.48,-0.5,3,Lying,4
2019-01-15,03:37:56,3.11,-5.72,8.179999,-0.14999999,-0.28,-0.48999998,-0.14999999,-0.28,-0.48999998,3,Lying,4
2019-01-15,03:37:56,2.26,-5.91,8.04,-0.14999999,-0.28,-0.48999998,-0.14999999,-0.28,-0.48999998,3,Lying,4
2019-01-15,03:37:56,2.26,-5.91,8.04,-0.11,0.26,-0.22999999,-0.11,0.26,-0.22999999,3,Lying,4
2019-01-15,03:37:56,1.18,-6.1,8.16,-0.11,0.26,-0.22999999,-0.11,0.26,-0.22999999,3,Lying,4
2019-01-15,03:37:56,1.18,-6.1,8.16,-0.19999999,0.71,-0.03,-0.19999999,0.71,-0.03,3,Lying,4
2019-01-15,03:37:56,0.14999999,-6.1499996,8.37,-0.19999999,0.71,-0.03,-0.19999999,0.71,-0.03,3,Lying,4
2019-01-15,03:37:56,0.14999999,-6.1499996,8.37,-0.13,0.91999996,0.07,-0.13,0.91999996,0.07,3,Lying,4
2019-01-15,03:37:56,-0.55,-5.56,8.139999000000001,-0.13,0.91999996,0.07,-0.13,0.91999996,0.07,3,Lying,4
2019-01-15,03:37:56,-0.55,-5.56,8.139999000000001,0.14,0.76,0.14,0.14,0.76,0.14,3,Lying,4
2019-01-15,03:37:56,-0.75,-5.15,8.19,0.14,0.76,0.14,0.14,0.76,0.14,3,Lying,4
2019-01-15,03:37:56,-0.75,-5.15,8.19,0.35,0.17999999,-0.06,0.35,0.17999999,-0.06,3,Lying,4
2019-01-15,03:37:56,0.29999998,-4.79,8.73,0.35,0.17999999,-0.06,0.35,0.17999999,-0.06,3,Lying,4
2019-01-15,03:37:56,0.29999998,-4.79,8.73,0.24,-0.089999996,-0.04,0.24,-0.089999996,-0.04,3,Lying,4
2019-01-15,03:37:56,0.8299999,-4.64,8.719999000000001,0.24,-0.089999996,-0.04,0.24,-0.089999996,-0.04,3,Lying,4
2019-01-15,03:37:56,0.8299999,-4.64,8.719999000000001,0.17,0.17,-0.01,0.17,0.17,-0.01,3,Lying,4
2019-01-15,03:37:56,0.03,-4.83,8.33,0.17,0.17,-0.01,0.17,0.17,-0.01,3,Lying,4
2019-01-15,03:37:56,0.03,-4.83,8.33,0.17,0.11,-0.32,0.17,0.11,-0.32,3,Lying,4
2019-01-15,03:37:56,-0.45,-4.5899997,8.259999,0.17,0.11,-0.32,0.17,0.11,-0.32,3,Lying,4
2019-01-15,03:37:56,-0.45,-4.5899997,8.259999,0.12,-0.12,-0.57,0.12,-0.12,-0.57,3,Lying,4
2019-01-15,03:37:56,-0.69,-4.7,8.269999499999999,0.12,-0.12,-0.57,0.12,-0.12,-0.57,3,Lying,4
2019-01-15,03:37:56,-0.69,-4.7,8.269999499999999,-0.03,0.13,-0.06,-0.03,0.13,-0.06,3,Lying,4
2019-01-15,03:37:56,0.64,-5.2599998,9.15,-0.03,0.13,-0.06,-0.03,0.13,-0.06,3,Lying,4
2019-01-15,03:37:56,0.64,-5.2599998,9.15,-0.24,0.089999996,0.21,-0.24,0.089999996,0.21,3,Lying,4
2019-01-15,03:37:56,1.3499999,-4.89,9.089999,-0.24,0.089999996,0.21,-0.24,0.089999996,0.21,3,Lying,4
2019-01-15,03:37:56,1.3499999,-4.89,9.089999,-0.07,0.19,0.049999997000000004,-0.07,0.19,0.049999997000000004,3,Lying,4
2019-01-15,03:37:56,0.96999997,-5.12,8.23,-0.07,0.19,0.049999997000000004,-0.07,0.19,0.049999997000000004,3,Lying,4
2019-01-15,03:37:56,0.96999997,-5.12,8.23,0.25,0.04,-0.45,0.25,0.04,-0.45,3,Lying,4
2019-01-15,03:37:56,2.05,-4.62,8.15,0.25,0.04,-0.45,0.25,0.04,-0.45,3,Lying,4
2019-01-15,03:37:56,2.05,-4.62,8.15,0.35999998,-1.01,-0.93,0.35999998,-1.01,-0.93,3,Lying,4
2019-01-15,03:37:56,1.3399999,-4.34,7.6499996,0.35999998,-1.01,-0.93,0.35999998,-1.01,-0.93,3,Lying,4
2019-01-15,03:37:56,1.3399999,-4.34,7.6499996,0.03,0.7,-0.19,0.03,0.7,-0.19,3,Lying,4
2019-01-15,03:37:56,0.19,-4.2,7.18,0.03,0.7,-0.19,0.03,0.7,-0.19,3,Lying,4
2019-01-15,03:37:56,0.19,-4.2,7.18,-0.19999999,1.3399999,0.24,-0.19999999,1.3399999,0.24,3,Lying,4
2019-01-15,03:37:56,-0.73,-4.37,7.3699994,-0.19999999,1.3399999,0.24,-0.19999999,1.3399999,0.24,3,Lying,4
2019-01-15,03:37:56,-0.73,-4.37,7.3699994,-0.59,2.1,0.58,-0.59,2.1,0.58,3,Lying,4
2019-01-15,03:37:56,-3.49,-5.8599997,9.12,-1.04,2.77,0.79999995,-1.04,2.77,0.79999995,3,Lying,4
2019-01-15,03:37:56,-3.49,-5.8599997,9.12,-1.04,2.77,0.79999995,-1.04,2.77,0.79999995,3,Lying,4
2019-01-15,03:37:56,-3.6499998999999996,-6.8799996,9.36,-1.04,2.77,0.79999995,-1.04,2.77,0.79999995,3,Lying,4
2019-01-15,03:37:56,-3.6499998999999996,-6.8799996,9.36,-0.32,0.59,-0.04,-0.32,0.59,-0.04,3,Lying,4
2019-01-15,03:37:56,-2.87,-5.1,7.0199995,-0.32,0.59,-0.04,-0.32,0.59,-0.04,3,Lying,4
2019-01-15,03:37:57,-2.87,-5.1,7.0199995,0.39,-0.45,-0.51,0.39,-0.45,-0.51,3,Lying,4
2019-01-15,03:37:57,-1.45,-5.5,8.4,0.39,-0.45,-0.51,0.39,-0.45,-0.51,3,Lying,4
2019-01-15,03:37:57,-1.45,-5.5,8.4,-0.14,-0.51,-0.17,-0.14,-0.51,-0.17,3,Lying,4
2019-01-15,03:37:57,-0.53000003,-5.43,8.37,-0.14,-0.51,-0.17,-0.14,-0.51,-0.17,3,Lying,4
2019-01-15,03:37:57,-0.53000003,-5.43,8.37,-0.02,-0.28,-0.11,-0.02,-0.28,-0.11,3,Lying,4
2019-01-15,03:37:57,-1.08,-5.33,7.9799995,-0.02,-0.28,-0.11,-0.02,-0.28,-0.11,3,Lying,4
2019-01-15,03:37:57,-1.08,-5.33,7.9799995,0.089999996,0.17,-0.089999996,0.089999996,0.17,-0.089999996,3,Lying,4
2019-01-15,03:37:57,-1.35,-5.71,8.29,0.089999996,0.17,-0.089999996,0.089999996,0.17,-0.089999996,3,Lying,4
2019-01-15,03:37:57,-1.35,-5.71,8.29,-0.04,0.37,-0.049999997000000004,-0.04,0.37,-0.049999997000000004,3,Lying,4
2019-01-15,03:37:57,-1.6,-5.46,7.8699994,-0.04,0.37,-0.049999997000000004,-0.04,0.37,-0.049999997000000004,3,Lying,4
2019-01-15,03:37:57,-1.6,-5.46,7.8699994,-0.02,0.65,0.049999997000000004,-0.02,0.65,0.049999997000000004,3,Lying,4
2019-01-15,03:37:57,-0.84000003,-5.0499997,7.599999400000001,-0.02,0.65,0.049999997000000004,-0.02,0.65,0.049999997000000004,3,Lying,4
2019-01-15,03:37:57,-0.84000003,-5.0499997,7.599999400000001,-0.19,0.53999996,0.13,-0.19,0.53999996,0.13,3,Lying,4
2019-01-15,03:37:57,-0.39,-5.08,7.009999799999999,-0.19,0.53999996,0.13,-0.19,0.53999996,0.13,3,Lying,4
2019-01-15,03:37:57,-0.39,-5.08,7.009999799999999,-0.19,0.28,-0.14,-0.19,0.28,-0.14,3,Lying,4
2019-01-15,03:37:57,-0.75,-5.68,7.5699997,-0.19,0.28,-0.14,-0.19,0.28,-0.14,3,Lying,4
2019-01-15,03:37:57,-0.75,-5.68,7.5699997,-0.48999998,-0.37,-0.93,-0.48999998,-0.37,-0.93,3,Lying,4
2019-01-15,03:37:57,-1.64,-7.39,8.15,-0.48999998,-0.37,-0.93,-0.48999998,-0.37,-0.93,3,Lying,4
2019-01-15,03:37:57,-1.64,-7.39,8.15,-0.74,-0.52,-1.15,-0.74,-0.52,-1.15,3,Lying,4
2019-01-15,03:37:57,-1.07,-7.0499997,7.9699993000000005,-0.74,-0.52,-1.15,-0.74,-0.52,-1.15,3,Lying,4
2019-01-15,03:37:57,-1.07,-7.0499997,7.9699993000000005,-0.48999998,-0.29,-0.59999996,-0.48999998,-0.29,-0.59999996,3,Lying,4
2019-01-15,03:37:57,-2.03,-6.93,7.5199995,-0.48999998,-0.29,-0.59999996,-0.48999998,-0.29,-0.59999996,3,Lying,4
2019-01-15,03:37:57,-2.03,-6.93,7.5199995,-0.13,0.17,-0.5,-0.13,0.17,-0.5,3,Lying,4
2019-01-15,03:37:57,-1.34,-6.74,7.18,-0.13,0.17,-0.5,-0.13,0.17,-0.5,3,Lying,4
2019-01-15,03:37:57,-1.34,-6.74,7.18,-0.29999998,0.11,-0.17,-0.29999998,0.11,-0.17,3,Lying,4
2019-01-15,03:37:57,-0.92,-6.5499997,6.43,-0.29999998,0.11,-0.17,-0.29999998,0.11,-0.17,3,Lying,4
2019-01-15,03:37:57,-0.92,-6.5499997,6.43,-0.08,-0.22999999,-0.38,-0.08,-0.22999999,-0.38,3,Lying,4
2019-01-15,03:37:57,-0.75,-7.0,6.97,-0.08,-0.22999999,-0.38,-0.08,-0.22999999,-0.38,3,Lying,4
2019-01-15,03:37:57,-0.75,-7.0,6.97,-0.26999998,-0.29999998,-0.52,-0.26999998,-0.29999998,-0.52,3,Lying,4
2019-01-15,03:37:57,-0.91,-7.12,7.41,-0.26999998,-0.29999998,-0.52,-0.26999998,-0.29999998,-0.52,3,Lying,4
2019-01-15,03:37:57,-0.91,-7.12,7.41,-0.28,-0.07,-0.35999998,-0.28,-0.07,-0.35999998,3,Lying,4
2019-01-15,03:37:57,-0.51,-6.8999996,6.8599997,-0.28,-0.07,-0.35999998,-0.28,-0.07,-0.35999998,3,Lying,4
2019-01-15,03:37:57,-0.51,-6.8999996,6.8599997,-0.37,0.34,0.16,-0.37,0.34,0.16,3,Lying,4
2019-01-15,03:37:57,-0.72,-7.23,6.72,-0.37,0.34,0.16,-0.37,0.34,0.16,3,Lying,4
2019-01-15,03:37:57,-0.72,-7.23,6.72,-0.34,0.04,-0.04,-0.34,0.04,-0.04,3,Lying,4
2019-01-15,03:37:57,-0.85,-7.31,6.3599997,-0.34,0.04,-0.04,-0.34,0.04,-0.04,3,Lying,4
2019-01-15,03:37:57,-0.85,-7.31,6.3599997,-0.29,0.12,-0.04,-0.29,0.12,-0.04,3,Lying,4
2019-01-15,03:37:57,-2.44,-8.59,7.9799995,-0.29,0.12,-0.04,-0.29,0.12,-0.04,3,Lying,4
2019-01-15,03:37:57,-2.44,-8.59,7.9799995,-0.47,0.48999998,0.07,-0.47,0.48999998,0.07,3,Lying,4
2019-01-15,03:37:57,-1.97,-7.45,6.9199996,-0.47,0.48999998,0.07,-0.47,0.48999998,0.07,3,Lying,4
2019-01-15,03:37:57,-1.97,-7.45,6.9199996,-0.14999999,1.24,1.0799999,-0.14999999,1.24,1.0799999,3,Lying,4
2019-01-15,03:37:57,-2.92,-7.6,6.4999995,-0.14999999,1.24,1.0799999,-0.14999999,1.24,1.0799999,3,Lying,4
2019-01-15,03:37:58,-2.92,-7.6,6.4999995,0.08,0.19999999,0.08,0.08,0.19999999,0.08,3,Lying,4
2019-01-15,03:37:58,-1.78,-7.21,6.5199995,0.08,0.19999999,0.08,0.08,0.19999999,0.08,3,Lying,4
2019-01-15,03:37:58,-1.78,-7.21,6.5199995,-0.06,0.09999999400000001,0.049999997000000004,-0.06,0.09999999400000001,0.049999997000000004,3,Lying,4
2019-01-15,03:37:58,-1.5699999,-7.1,6.3799996,-0.06,0.09999999400000001,0.049999997000000004,-0.06,0.09999999400000001,0.049999997000000004,3,Lying,4
2019-01-15,03:37:58,-1.5699999,-7.1,6.3799996,-0.089999996,0.17999999,0.08,-0.089999996,0.17999999,0.08,3,Lying,4
2019-01-15,03:37:58,-2.33,-7.4199996,6.12,-0.07,0.22,-0.03,-0.07,0.22,-0.03,3,Lying,4
2019-01-15,03:37:58,-2.33,-7.4199996,6.12,-0.07,0.22,-0.03,-0.07,0.22,-0.03,3,Lying,4
2019-01-15,03:37:58,-1.83,-7.68,6.14,-0.07,0.22,-0.03,-0.07,0.22,-0.03,3,Lying,4
2019-01-15,03:37:58,-1.83,-7.68,6.14,-0.29999998,-0.19999999,-0.34,-0.29999998,-0.19999999,-0.34,3,Lying,4
2019-01-15,03:37:58,-2.09,-8.530000999999999,6.8299994,-0.29999998,-0.19999999,-0.34,-0.29999998,-0.19999999,-0.34,3,Lying,4
2019-01-15,03:37:58,-2.09,-8.530000999999999,6.8299994,-0.17,-0.65,-0.66999996,-0.17,-0.65,-0.66999996,3,Lying,4
2019-01-15,03:37:58,-0.69,-8.02,6.47,-0.17,-0.65,-0.66999996,-0.17,-0.65,-0.66999996,3,Lying,4
2019-01-15,03:37:58,-0.69,-8.02,6.47,-0.11,0.19999999,0.56,-0.11,0.19999999,0.56,3,Lying,4
2019-01-15,03:37:58,-1.17,-7.48,5.6,-0.11,0.19999999,0.56,-0.11,0.19999999,0.56,3,Lying,4
2019-01-15,03:37:58,-1.17,-7.48,5.6,0.04,0.28,0.45,0.04,0.28,0.45,3,Lying,4
2019-01-15,03:37:58,-2.09,-7.8599997,6.0699997,0.04,0.28,0.45,0.04,0.28,0.45,3,Lying,4
2019-01-15,03:37:58,-2.09,-7.8599997,6.0699997,-0.12,0.57,0.57,-0.12,0.57,0.57,3,Lying,4
2019-01-15,03:37:58,-3.12,-7.68,6.45,-0.12,0.57,0.57,-0.12,0.57,0.57,3,Lying,4
2019-01-15,03:37:58,-3.12,-7.68,6.45,-0.21,1.03,0.95,-0.21,1.03,0.95,3,Lying,4
2019-01-15,03:37:58,-3.5,-7.5,5.7799997,-0.21,1.03,0.95,-0.21,1.03,0.95,3,Lying,4
2019-01-15,03:37:58,-3.5,-7.5,5.7799997,-0.12,0.78,0.72999996,-0.12,0.78,0.72999996,3,Lying,4
2019-01-15,03:37:58,-3.5,-7.5,5.7799997,-0.12,0.78,0.72999996,-0.12,0.78,0.72999996,3,Lying,4
2019-01-15,03:37:58,-3.47,-7.19,5.5499997,-0.12,0.78,0.72999996,-0.12,0.78,0.72999996,3,Lying,4
2019-01-15,03:37:58,-3.47,-7.19,5.5499997,-0.12,0.42999998,0.63,-0.12,0.42999998,0.63,3,Lying,4
2019-01-15,03:37:58,-3.19,-7.24,5.5299997,-0.12,0.42999998,0.63,-0.12,0.42999998,0.63,3,Lying,4
2019-01-15,03:37:58,-3.19,-7.24,5.5299997,-0.21,0.45,0.68,-0.21,0.45,0.68,3,Lying,4
2019-01-15,03:37:58,-4.0899997,-7.5299997,5.7599998,-0.21,0.45,0.68,-0.21,0.45,0.68,3,Lying,4
2019-01-15,03:37:58,-4.0899997,-7.5299997,5.7599998,-0.34,0.22999999,0.42,-0.34,0.22999999,0.42,3,Lying,4
2019-01-15,03:37:58,-5.93,-7.14,5.2699995,-0.34,0.22999999,0.42,-0.34,0.22999999,0.42,3,Lying,4
2019-01-15,03:37:58,-5.93,-7.14,5.2699995,-0.19,0.26999998,0.42999998,-0.19,0.26999998,0.42999998,3,Lying,4
2019-01-15,03:37:58,-4.8099995,-8.12,6.1499996,-0.19,0.26999998,0.42999998,-0.19,0.26999998,0.42999998,3,Lying,4
2019-01-15,03:37:58,-4.8099995,-8.12,6.1499996,-0.34,-0.63,-0.09999999400000001,-0.34,-0.63,-0.09999999400000001,3,Lying,4
2019-01-15,03:37:58,-2.83,-7.23,5.41,-0.34,-0.63,-0.09999999400000001,-0.34,-0.63,-0.09999999400000001,3,Lying,4
2019-01-15,03:37:58,-2.83,-7.23,5.41,-0.08,-0.90999997,-0.45,-0.08,-0.90999997,-0.45,3,Lying,4
2019-01-15,03:37:58,-3.46,-8.539999,5.66,-0.08,-0.90999997,-0.45,-0.08,-0.90999997,-0.45,3,Lying,4
2019-01-15,03:37:58,-3.46,-8.539999,5.66,-0.22999999,-0.63,-0.38,-0.22999999,-0.63,-0.38,3,Lying,4
2019-01-15,03:37:58,-2.16,-8.01,5.2599998,-0.22999999,-0.63,-0.38,-0.22999999,-0.63,-0.38,3,Lying,4
2019-01-15,03:37:58,-2.16,-8.01,5.2599998,-0.11,-0.32,0.06,-0.11,-0.32,0.06,3,Lying,4
2019-01-15,03:37:58,-3.51,-8.2,5.4799995,-0.11,-0.32,0.06,-0.11,-0.32,0.06,3,Lying,4
2019-01-15,03:37:58,-3.51,-8.2,5.4799995,-0.14999999,0.19999999,0.19999999,-0.14999999,0.19999999,0.19999999,3,Lying,4
2019-01-15,03:37:58,-3.73,-8.59,5.8599997,-0.14999999,0.19999999,0.19999999,-0.14999999,0.19999999,0.19999999,3,Lying,4
2019-01-15,03:37:58,-3.73,-8.59,5.8599997,0.0,-0.17999999,-0.01,0.0,-0.17999999,-0.01,3,Lying,4
2019-01-15,03:37:58,-2.87,-8.33,5.5699997,0.0,-0.17999999,-0.01,0.0,-0.17999999,-0.01,3,Lying,4
2019-01-15,03:37:59,-2.87,-8.33,5.5699997,0.14999999,-0.28,0.16,0.14999999,-0.28,0.16,3,Lying,4
2019-01-15,03:37:59,-2.35,-7.46,5.5599995,0.14999999,-0.28,0.16,0.14999999,-0.28,0.16,3,Lying,4
2019-01-15,03:37:59,-2.35,-7.46,5.5599995,0.34,-0.63,-0.39999998,0.34,-0.63,-0.39999998,3,Lying,4
2019-01-15,03:37:59,-3.31,-7.9399996,6.1099997,0.34,-0.63,-0.39999998,0.34,-0.63,-0.39999998,3,Lying,4
2019-01-15,03:37:59,-3.31,-7.9399996,6.1099997,0.35999998,-0.56,-0.39999998,0.35999998,-0.56,-0.39999998,3,Lying,4
2019-01-15,03:37:59,-3.59,-8.610000999999999,7.12,0.35999998,-0.56,-0.39999998,0.35999998,-0.56,-0.39999998,3,Lying,4
2019-01-15,03:37:59,-3.59,-8.610000999999999,7.12,0.61,-1.38,-1.06,0.61,-1.38,-1.06,3,Lying,4
2019-01-15,03:37:59,-0.64,-6.66,5.39,0.61,-1.38,-1.06,0.61,-1.38,-1.06,3,Lying,4
2019-01-15,03:37:59,-0.64,-6.66,5.39,0.65999997,-1.76,-0.75,0.65999997,-1.76,-0.75,3,Lying,4
2019-01-15,03:37:59,0.29,-6.93,6.99,0.65999997,-1.76,-0.75,0.65999997,-1.76,-0.75,3,Lying,4
2019-01-15,03:37:59,0.29,-6.93,6.99,0.38,-1.8399999,-0.88,0.38,-1.8399999,-0.88,3,Lying,4
2019-01-15,03:37:59,2.47,-7.3399997,8.42,0.38,-1.8399999,-0.88,0.38,-1.8399999,-0.88,3,Lying,4
2019-01-15,03:37:59,2.47,-7.3399997,8.42,0.48999998,-1.5999999,-0.96999997,0.48999998,-1.5999999,-0.96999997,3,Lying,4
2019-01-15,03:37:59,1.8799999,-7.0,1.9,0.48999998,-1.5999999,-0.96999997,0.48999998,-1.5999999,-0.96999997,3,Lying,4
2019-01-15,03:37:59,1.8799999,-7.0,1.9,1.93,0.68,0.78999996,1.93,0.68,0.78999996,3,Lying,4
2019-01-15,03:37:59,2.81,-3.9299998,6.22,1.93,0.68,0.78999996,1.93,0.68,0.78999996,3,Lying,4
2019-01-15,03:37:59,2.81,-3.9299998,6.22,-0.59999996,0.82,0.35999998,-0.59999996,0.82,0.35999998,3,Lying,4
2019-01-15,03:37:59,-2.22,-6.99,6.2499995,-0.59999996,0.82,0.35999998,-0.59999996,0.82,0.35999998,3,Lying,4
2019-01-15,03:37:59,-2.22,-6.99,6.2499995,-0.53999996,3.08,0.9,-0.53999996,3.08,0.9,3,Lying,4
2019-01-15,03:37:59,-4.1099997,-8.85,6.89,-0.53999996,3.08,0.9,-0.53999996,3.08,0.9,3,Lying,4
2019-01-15,03:37:59,-4.1099997,-8.85,6.89,-0.96,1.5,0.24,-0.96,1.5,0.24,3,Lying,4
2019-01-15,03:37:59,-2.46,-7.3399997,6.0599995,-0.96,1.5,0.24,-0.96,1.5,0.24,3,Lying,4
2019-01-15,03:37:59,-2.46,-7.3399997,6.0599995,-0.74,1.35,1.0699999,-0.74,1.35,1.0699999,3,Lying,4
2019-01-15,03:37:59,-4.7099996,-7.39,5.0499997,-0.74,1.35,1.0699999,-0.74,1.35,1.0699999,3,Lying,4
2019-01-15,03:37:59,-4.7099996,-7.39,5.0499997,-0.45,1.05,0.57,-0.45,1.05,0.57,3,Lying,4
2019-01-15,03:37:59,-6.0099998,-8.29,5.91,-0.45,1.05,0.57,-0.45,1.05,0.57,3,Lying,4
2019-01-15,03:37:59,-6.0099998,-8.29,5.91,-0.22999999,-0.32999998,-0.44,-0.22999999,-0.32999998,-0.44,3,Lying,4
2019-01-15,03:37:59,-3.84,-9.09,6.5799994,-0.22999999,-0.32999998,-0.44,-0.22999999,-0.32999998,-0.44,3,Lying,4
2019-01-15,03:37:59,-3.84,-9.09,6.5799994,-0.17,-0.77,-0.11,-0.17,-0.77,-0.11,3,Lying,4
2019-01-15,03:37:59,-4.3099995,-7.89,6.3799996,-0.17,-0.77,-0.11,-0.17,-0.77,-0.11,3,Lying,4
2019-01-15,03:37:59,-4.3099995,-7.89,6.3799996,0.26999998,-1.12,-0.29999998,0.26999998,-1.12,-0.29999998,3,Lying,4
2019-01-15,03:37:59,-3.0,-7.73,6.7899994999999995,0.26999998,-1.12,-0.29999998,0.26999998,-1.12,-0.29999998,3,Lying,4
2019-01-15,03:37:59,-3.0,-7.73,6.7899994999999995,0.83,-2.1699998,-0.62,0.83,-2.1699998,-0.62,3,Lying,4
2019-01-15,03:37:59,0.42,-6.95,6.68,0.96,-2.62,-0.57,0.96,-2.62,-0.57,3,Lying,4
2019-01-15,03:37:59,0.42,-6.95,6.68,0.96,-2.62,-0.57,0.96,-2.62,-0.57,3,Lying,4
2019-01-15,03:37:59,1.55,-6.41,6.759999799999999,0.96,-2.62,-0.57,0.96,-2.62,-0.57,3,Lying,4
2019-01-15,03:37:59,1.55,-6.41,6.759999799999999,0.56,-1.01,-0.07,0.56,-1.01,-0.07,3,Lying,4
2019-01-15,03:37:59,-0.16999999,-7.08,7.7499994999999995,0.56,-1.01,-0.07,0.56,-1.01,-0.07,3,Lying,4
2019-01-15,03:37:59,-0.16999999,-7.08,7.7499994999999995,0.22999999,-0.19999999,0.08,0.22999999,-0.19999999,0.08,3,Lying,4
2019-01-15,03:37:59,2.24,-7.8999996,7.7099996,0.22999999,-0.19999999,0.08,0.22999999,-0.19999999,0.08,3,Lying,4
2019-01-15,03:38:00,2.24,-7.8999996,7.7099996,0.89,-0.21,0.11,0.89,-0.21,0.11,3,Lying,4
2019-01-15,03:38:00,-1.89,-8.299999,7.16,0.89,-0.21,0.11,0.89,-0.21,0.11,3,Lying,4
2019-01-15,03:38:00,-1.89,-8.299999,7.16,0.14999999,0.71999997,-0.26,0.14999999,0.71999997,-0.26,3,Lying,4
2019-01-15,03:38:00,0.8899999,-5.39,6.93,0.14999999,0.71999997,-0.26,0.14999999,0.71999997,-0.26,3,Lying,4
2019-01-15,03:38:00,0.8899999,-5.39,6.93,0.03,0.14999999,0.28,0.03,0.14999999,0.28,3,Lying,4
2019-01-15,03:38:00,-0.26,-7.22,8.62,0.03,0.14999999,0.28,0.03,0.14999999,0.28,3,Lying,4
2019-01-15,03:38:00,-0.26,-7.22,8.62,-0.01,-0.16,-0.51,-0.01,-0.16,-0.51,3,Lying,4
2019-01-15,03:38:00,-1.25,-7.6499996,11.379999,-0.01,-0.16,-0.51,-0.01,-0.16,-0.51,3,Lying,4
2019-01-15,03:38:00,-1.25,-7.6499996,11.379999,0.17999999,0.39999998,-0.41,0.17999999,0.39999998,-0.41,3,Lying,4
2019-01-15,03:38:00,-1.22,-5.47,7.059999499999999,0.17999999,0.39999998,-0.41,0.17999999,0.39999998,-0.41,3,Lying,4
2019-01-15,03:38:00,-1.22,-5.47,7.059999499999999,1.3,0.93,0.87,1.3,0.93,0.87,3,Lying,4
2019-01-15,03:38:00,-1.16,-5.0099998,7.18,1.3,0.93,0.87,1.3,0.93,0.87,3,Lying,4
2019-01-15,03:38:00,-1.16,-5.0099998,7.18,0.64,0.55,0.82,0.64,0.55,0.82,3,Lying,4
2019-01-15,03:38:00,-1.03,-5.42,7.89,0.64,0.55,0.82,0.64,0.55,0.82,3,Lying,4
2019-01-15,03:38:00,-1.03,-5.42,7.89,0.08,-0.35999998,0.12,0.08,-0.35999998,0.12,3,Lying,4
2019-01-15,03:38:00,-0.41,-5.35,8.04,0.08,-0.35999998,0.12,0.08,-0.35999998,0.12,3,Lying,4
2019-01-15,03:38:00,-0.41,-5.35,8.04,0.0,-0.32999998,0.089999996,0.0,-0.32999998,0.089999996,3,Lying,4
2019-01-15,03:38:00,-0.85,-5.7999997,8.509999,0.0,-0.32999998,0.089999996,0.0,-0.32999998,0.089999996,3,Lying,4
2019-01-15,03:38:00,-0.85,-5.7999997,8.509999,-0.35,0.32999998,0.09999999400000001,-0.35,0.32999998,0.09999999400000001,3,Lying,4
2019-01-15,03:38:00,-1.62,-5.92,8.65,-0.35,0.32999998,0.09999999400000001,-0.35,0.32999998,0.09999999400000001,3,Lying,4
