date,time,accX,accY,accZ,gyroX,gyroY,gyroZ,magX,magY,magZ,Trial,activity,activity_number
2019-01-17,11:48:05,-4.7699995,0.00999999,8.17,0.02,0.08,0.0,0.02,0.08,0.0,1,Lying,4
2019-01-17,11:48:05,-4.9199996,-0.01999998,7.89,0.02,0.08,0.0,0.02,0.08,0.0,1,Lying,4
2019-01-17,11:48:05,-4.9199996,-0.01999998,7.89,0.02,0.07,-0.01,0.02,0.07,-0.01,1,Lying,4
2019-01-17,11:48:05,-4.7599998,-0.030000001000000002,8.129999,0.02,0.07,-0.01,0.02,0.07,-0.01,1,Lying,4
2019-01-17,11:48:05,-4.7599998,-0.030000001000000002,8.129999,0.0,-0.02,0.01,0.0,-0.02,0.01,1,Lying,4
2019-01-17,11:48:05,-4.7499995,0.0,8.08,0.0,-0.02,0.01,0.0,-0.02,0.01,1,Lying,4
2019-01-17,11:48:05,-4.7499995,0.0,8.08,0.0,-0.02,0.01,0.0,-0.02,0.01,1,Lying,4
2019-01-17,11:48:05,-4.7099996,-0.09,8.139999000000001,0.0,-0.02,0.01,0.0,-0.02,0.01,1,Lying,4
2019-01-17,11:48:05,-4.7099996,-0.09,8.139999000000001,0.0,-0.02,0.0,0.0,-0.02,0.0,1,Lying,4
2019-01-17,11:48:05,-4.68,-0.07999998,8.11,0.0,-0.02,0.0,0.0,-0.02,0.0,1,Lying,4
2019-01-17,11:48:05,-4.68,-0.07999998,8.11,0.01,0.0,0.0,0.01,0.0,0.0,1,Lying,4
2019-01-17,11:48:05,-4.8299994,0.0,7.9699993000000005,0.01,0.0,0.0,0.01,0.0,0.0,1,Lying,4
2019-01-17,11:48:05,-4.8299994,0.0,7.9699993000000005,0.01,0.02,0.0,0.01,0.02,0.0,1,Lying,4
2019-01-17,11:48:05,-4.7999997,-0.09,8.04,0.01,0.02,0.0,0.01,0.02,0.0,1,Lying,4
2019-01-17,11:48:06,-4.7999997,-0.09,8.04,0.0,-0.02,0.0,0.0,-0.02,0.0,1,Lying,4
2019-01-17,11:48:06,-4.8799996,-0.00999999,8.129999,0.0,-0.02,0.0,0.0,-0.02,0.0,1,Lying,4
2019-01-17,11:48:06,-4.8799996,-0.00999999,8.129999,0.0,-0.049999997000000004,0.0,0.0,-0.049999997000000004,0.0,1,Lying,4
2019-01-17,11:48:06,-4.49,0.050000012,8.23,0.0,-0.049999997000000004,0.0,0.0,-0.049999997000000004,0.0,1,Lying,4
2019-01-17,11:48:06,-4.49,0.050000012,8.23,0.0,-0.06,0.0,0.0,-0.06,0.0,1,Lying,4
2019-01-17,11:48:06,-4.58,-0.00999999,8.12,0.0,-0.06,0.0,0.0,-0.06,0.0,1,Lying,4
2019-01-17,11:48:06,-4.58,-0.00999999,8.12,0.01,0.04,0.0,0.01,0.04,0.0,1,Lying,4
2019-01-17,11:48:06,-4.74,-0.16999999,7.8199997,0.01,0.04,0.0,0.01,0.04,0.0,1,Lying,4
2019-01-17,11:48:06,-4.74,-0.16999999,7.8199997,0.01,0.08,-0.01,0.01,0.08,-0.01,1,Lying,4
2019-01-17,11:48:06,-4.8199997,-0.030000001000000002,7.9199996,0.01,0.08,-0.01,0.01,0.08,-0.01,1,Lying,4
2019-01-17,11:48:06,-4.8199997,-0.030000001000000002,7.9199996,0.0,0.049999997000000004,0.0,0.0,0.049999997000000004,0.0,1,Lying,4
2019-01-17,11:48:06,-4.93,-0.049999982000000005,8.059999000000001,0.0,0.049999997000000004,0.0,0.0,0.049999997000000004,0.0,1,Lying,4
2019-01-17,11:48:06,-4.93,-0.049999982000000005,8.059999000000001,0.0,0.0,0.0,0.0,0.0,0.0,1,Lying,4
2019-01-17,11:48:06,-4.7999997,-0.060000002000000004,8.15,0.0,0.0,0.0,0.0,0.0,0.0,1,Lying,4
2019-01-17,11:48:06,-4.7999997,-0.060000002000000004,8.15,0.0,0.0,0.02,0.0,0.0,0.02,1,Lying,4
2019-01-17,11:48:06,-4.72,-0.06999999,8.099999,0.0,0.0,0.02,0.0,0.0,0.02,1,Lying,4
2019-01-17,11:48:06,-4.72,-0.06999999,8.099999,0.0,0.0,0.0,0.0,0.0,0.0,1,Lying,4
2019-01-17,11:48:06,-4.85,-0.030000001000000002,8.08,0.0,0.0,0.0,0.0,0.0,0.0,1,Lying,4
2019-01-17,11:48:06,-4.85,-0.030000001000000002,8.08,0.01,0.03,0.0,0.01,0.03,0.0,1,Lying,4
2019-01-17,11:48:06,-4.8199997,-0.030000001000000002,8.129999,0.01,0.03,0.0,0.01,0.03,0.0,1,Lying,4
2019-01-17,11:48:06,-4.8199997,-0.030000001000000002,8.129999,0.02,-0.04,0.0,0.02,-0.04,0.0,1,Lying,4
2019-01-17,11:48:06,-4.6699996,-0.01999998,8.089999,0.02,-0.04,0.0,0.02,-0.04,0.0,1,Lying,4
2019-01-17,11:48:06,-4.6699996,-0.01999998,8.089999,0.01,-0.04,0.0,0.01,-0.04,0.0,1,Lying,4
2019-01-17,11:48:06,-4.7599998,0.0,8.0,0.01,-0.04,0.0,0.01,-0.04,0.0,1,Lying,4
2019-01-17,11:48:06,-4.7599998,0.0,8.0,0.0,0.01,0.0,0.0,0.01,0.0,1,Lying,4
2019-01-17,11:48:06,-4.7099996,0.0,8.059999000000001,0.0,0.01,0.0,0.0,0.01,0.0,1,Lying,4
2019-01-17,11:48:06,-4.7099996,0.0,8.059999000000001,0.0,-0.06,0.01,0.0,-0.06,0.01,1,Lying,4
2019-01-17,11:48:06,-4.6099997,0.060000002000000004,8.2,0.0,-0.06,0.01,0.0,-0.06,0.01,1,Lying,4
2019-01-17,11:48:06,-4.6099997,0.060000002000000004,8.2,0.0,-0.04,0.01,0.0,-0.04,0.01,1,Lying,4
2019-01-17,11:48:06,-4.91,-0.03999999,7.9199996,0.0,-0.04,0.01,0.0,-0.04,0.01,1,Lying,4
2019-01-17,11:48:06,-4.91,-0.03999999,7.9199996,0.01,0.03,-0.01,0.01,0.03,-0.01,1,Lying,4
2019-01-17,11:48:06,-4.89,0.0,7.99,0.01,0.03,-0.01,0.01,0.03,-0.01,1,Lying,4
2019-01-17,11:48:06,-4.89,0.0,7.99,0.0,0.0,0.0,0.0,0.0,0.0,1,Lying,4
2019-01-17,11:48:06,-4.7799997,-0.03999999,8.11,0.0,0.0,0.0,0.0,0.0,0.0,1,Lying,4
2019-01-17,11:48:06,-4.7799997,-0.03999999,8.11,0.0,-0.04,0.02,0.0,-0.04,0.02,1,Lying,4
2019-01-17,11:48:06,-4.8199997,0.04000002,8.219999000000001,0.0,-0.04,0.02,0.0,-0.04,0.02,1,Lying,4
2019-01-17,11:48:06,-4.8199997,0.04000002,8.219999000000001,-0.01,-0.02,0.01,-0.01,-0.02,0.01,1,Lying,4
2019-01-17,11:48:06,-4.7499995,-0.16,8.08,-0.01,-0.02,0.01,-0.01,-0.02,0.01,1,Lying,4
2019-01-17,11:48:06,-4.7499995,-0.16,8.08,-0.02,0.0,-0.01,-0.02,0.0,-0.01,1,Lying,4
2019-01-17,11:48:06,-4.8199997,-0.049999982000000005,8.019999499999999,-0.02,0.0,-0.01,-0.02,0.0,-0.01,1,Lying,4
2019-01-17,11:48:06,-4.8199997,-0.049999982000000005,8.019999499999999,0.0,0.0,0.01,0.0,0.0,0.01,1,Lying,4
2019-01-17,11:48:07,-4.7299995,-0.030000001000000002,8.139999000000001,0.0,0.0,0.01,0.0,0.0,0.01,1,Lying,4
2019-01-17,11:48:07,-4.7299995,-0.030000001000000002,8.139999000000001,0.0,-0.02,0.01,0.0,-0.02,0.01,1,Lying,4
2019-01-17,11:48:07,-4.7799997,-0.07999998,8.089999,0.0,0.0,0.0,0.0,0.0,0.0,1,Lying,4
2019-01-17,11:48:07,-4.7799997,-0.07999998,8.089999,0.0,0.0,0.0,0.0,0.0,0.0,1,Lying,4
2019-01-17,11:48:07,-4.7699995,-0.109999985,8.11,0.0,0.0,0.0,0.0,0.0,0.0,1,Lying,4
2019-01-17,11:48:07,-4.7699995,-0.109999985,8.11,0.0,0.0,0.0,0.0,0.0,0.0,1,Lying,4
2019-01-17,11:48:07,-4.7699995,-0.01999998,8.04,0.0,0.0,0.0,0.0,0.0,0.0,1,Lying,4
2019-01-17,11:48:07,-4.7699995,-0.01999998,8.04,0.01,-0.02,0.0,0.01,-0.02,0.0,1,Lying,4
2019-01-17,11:48:07,-4.6699996,-0.049999982000000005,8.089999,0.01,-0.02,0.0,0.01,-0.02,0.0,1,Lying,4
2019-01-17,11:48:07,-4.6699996,-0.049999982000000005,8.089999,0.01,-0.04,0.0,0.01,-0.04,0.0,1,Lying,4
2019-01-17,11:48:07,-4.7599998,-0.06999999,8.059999000000001,0.01,-0.04,0.0,0.01,-0.04,0.0,1,Lying,4
2019-01-17,11:48:07,-4.7599998,-0.06999999,8.059999000000001,0.01,0.0,-0.01,0.01,0.0,-0.01,1,Lying,4
2019-01-17,11:48:07,-4.7699995,-0.01999998,7.99,0.01,0.0,-0.01,0.01,0.0,-0.01,1,Lying,4
2019-01-17,11:48:07,-4.7699995,-0.01999998,7.99,0.01,-0.03,-0.01,0.01,-0.03,-0.01,1,Lying,4
2019-01-17,11:48:07,-4.7599998,-0.14999998,8.059999000000001,0.01,-0.03,-0.01,0.01,-0.03,-0.01,1,Lying,4
2019-01-17,11:48:07,-4.7599998,-0.14999998,8.059999000000001,0.01,-0.07,-0.02,0.01,-0.07,-0.02,1,Lying,4
2019-01-17,11:48:07,-4.6299996,-0.07999998,8.269999499999999,0.01,-0.07,-0.02,0.01,-0.07,-0.02,1,Lying,4
2019-01-17,11:48:07,-4.6299996,-0.07999998,8.269999499999999,0.01,-0.09999999400000001,-0.01,0.01,-0.09999999400000001,-0.01,1,Lying,4
2019-01-17,11:48:07,-4.4999995,-0.07999998,8.36,0.01,-0.09999999400000001,-0.01,0.01,-0.09999999400000001,-0.01,1,Lying,4
2019-01-17,11:48:07,-4.4999995,-0.07999998,8.36,0.01,-0.049999997000000004,0.02,0.01,-0.049999997000000004,0.02,1,Lying,4
2019-01-17,11:48:07,-4.58,-0.030000001000000002,8.11,0.01,-0.049999997000000004,0.02,0.01,-0.049999997000000004,0.02,1,Lying,4
2019-01-17,11:48:07,-4.58,-0.030000001000000002,8.11,0.02,0.08,0.02,0.02,0.08,0.02,1,Lying,4
2019-01-17,11:48:07,-4.8299994,-0.01999998,7.95,0.02,0.08,0.02,0.02,0.08,0.02,1,Lying,4
2019-01-17,11:48:07,-4.8299994,-0.01999998,7.95,0.0,0.11,0.03,0.0,0.11,0.03,1,Lying,4
2019-01-17,11:48:07,-4.7999997,0.0,8.03,0.0,0.11,0.03,0.0,0.11,0.03,1,Lying,4
2019-01-17,11:48:07,-4.7999997,0.0,8.03,0.0,0.049999997000000004,0.03,0.0,0.049999997000000004,0.03,1,Lying,4
2019-01-17,11:48:07,-4.7899995,0.01999998,8.129999,0.0,0.049999997000000004,0.03,0.0,0.049999997000000004,0.03,1,Lying,4
2019-01-17,11:48:07,-4.7899995,0.01999998,8.129999,0.0,0.03,0.04,0.0,0.03,0.04,1,Lying,4
2019-01-17,11:48:07,-4.7999997,-0.030000001000000002,8.08,0.0,0.03,0.04,0.0,0.03,0.04,1,Lying,4
2019-01-17,11:48:07,-4.7999997,-0.030000001000000002,8.08,0.0,0.049999997000000004,0.01,0.0,0.049999997000000004,0.01,1,Lying,4
2019-01-17,11:48:07,-4.8099995,-0.030000001000000002,8.019999499999999,0.0,0.049999997000000004,0.01,0.0,0.049999997000000004,0.01,1,Lying,4
2019-01-17,11:48:07,-4.8099995,-0.030000001000000002,8.019999499999999,0.01,0.06,0.0,0.01,0.06,0.0,1,Lying,4
2019-01-17,11:48:07,-4.8299994,0.00999999,8.0,0.01,0.06,0.0,0.01,0.06,0.0,1,Lying,4
2019-01-17,11:48:07,-4.8299994,0.00999999,8.0,0.02,0.06,0.0,0.02,0.06,0.0,1,Lying,4
2019-01-17,11:48:07,-5.0599995,-0.00999999,7.7999997,0.02,0.06,0.0,0.02,0.06,0.0,1,Lying,4
2019-01-17,11:48:07,-5.0599995,-0.00999999,7.7999997,0.02,0.049999997000000004,-0.01,0.02,0.049999997000000004,-0.01,1,Lying,4
2019-01-17,11:48:07,-4.7999997,0.030000031,8.03,0.0,-0.03,0.0,0.0,-0.03,0.0,1,Lying,4
2019-01-17,11:48:07,-4.7999997,0.030000031,8.03,0.0,-0.03,0.0,0.0,-0.03,0.0,1,Lying,4
2019-01-17,11:48:07,-4.7999997,-0.01999998,8.07,0.0,-0.03,0.0,0.0,-0.03,0.0,1,Lying,4
2019-01-17,11:48:07,-4.7999997,-0.01999998,8.07,0.01,-0.02,0.0,0.01,-0.02,0.0,1,Lying,4
2019-01-17,11:48:07,-4.8599997,0.0,8.009999,0.01,-0.02,0.0,0.01,-0.02,0.0,1,Lying,4
2019-01-17,11:48:07,-4.8599997,0.0,8.009999,0.01,0.0,0.0,0.01,0.0,0.0,1,Lying,4
2019-01-17,11:48:08,-4.8399997,-0.030000001000000002,7.9799995,0.01,0.0,0.0,0.01,0.0,0.0,1,Lying,4
2019-01-17,11:48:08,-4.8399997,-0.030000001000000002,7.9799995,0.0,0.02,0.01,0.0,0.02,0.01,1,Lying,4
2019-01-17,11:48:08,-4.8799996,0.00999999,7.99,0.0,0.02,0.01,0.0,0.02,0.01,1,Lying,4
2019-01-17,11:48:08,-4.8799996,0.00999999,7.99,0.0,0.02,0.01,0.0,0.02,0.01,1,Lying,4
2019-01-17,11:48:08,-4.93,0.050000012,7.95,0.0,0.02,0.01,0.0,0.02,0.01,1,Lying,4
2019-01-17,11:48:08,-4.93,0.050000012,7.95,0.0,0.0,0.01,0.0,0.0,0.01,1,Lying,4
2019-01-17,11:48:08,-4.87,0.01999998,8.059999000000001,0.0,0.0,0.01,0.0,0.0,0.01,1,Lying,4
2019-01-17,11:48:08,-4.87,0.01999998,8.059999000000001,0.0,-0.01,0.01,0.0,-0.01,0.01,1,Lying,4
2019-01-17,11:48:08,-4.93,0.04000002,7.9399996,0.0,-0.01,0.01,0.0,-0.01,0.01,1,Lying,4
2019-01-17,11:48:08,-4.93,0.04000002,7.9399996,0.0,0.01,0.0,0.0,0.01,0.0,1,Lying,4
2019-01-17,11:48:08,-4.91,0.0,7.9399996,0.0,0.01,0.0,0.0,0.01,0.0,1,Lying,4
2019-01-17,11:48:08,-4.91,0.0,7.9399996,0.0,0.0,0.0,0.0,0.0,0.0,1,Lying,4
2019-01-17,11:48:08,-4.91,-0.00999999,7.9699993000000005,0.0,0.0,0.0,0.0,0.0,0.0,1,Lying,4
2019-01-17,11:48:08,-4.91,-0.00999999,7.9699993000000005,0.0,0.0,0.0,0.0,0.0,0.0,1,Lying,4
2019-01-17,11:48:08,-4.8599997,0.030000031,8.04,0.0,0.0,0.0,0.0,0.0,0.0,1,Lying,4
2019-01-17,11:48:08,-4.8599997,0.030000031,8.04,0.0,0.0,0.01,0.0,0.0,0.01,1,Lying,4
2019-01-17,11:48:08,-4.9199996,0.04000002,7.91,0.0,0.0,0.01,0.0,0.0,0.01,1,Lying,4
2019-01-17,11:48:08,-4.9199996,0.04000002,7.91,0.0,0.0,0.01,0.0,0.0,0.01,1,Lying,4
2019-01-17,11:48:08,-4.85,0.0,7.8999996,0.0,0.0,0.01,0.0,0.0,0.01,1,Lying,4
2019-01-17,11:48:08,-4.85,0.0,7.8999996,0.0,-0.01,0.01,0.0,-0.01,0.01,1,Lying,4
2019-01-17,11:48:08,-4.87,0.0,7.9799995,0.0,-0.01,0.01,0.0,-0.01,0.01,1,Lying,4
2019-01-17,11:48:08,-4.87,0.0,7.9799995,0.0,0.0,0.0,0.0,0.0,0.0,1,Lying,4
2019-01-17,11:48:08,-4.93,-0.03999999,7.9399996,0.0,0.0,0.0,0.0,0.0,0.0,1,Lying,4
2019-01-17,11:48:08,-4.93,-0.03999999,7.9399996,0.0,0.0,0.0,0.0,0.0,0.0,1,Lying,4
2019-01-17,11:48:08,-4.8599997,0.00999999,8.019999499999999,0.0,0.0,0.0,0.0,0.0,0.0,1,Lying,4
2019-01-17,11:48:08,-4.8599997,0.00999999,8.019999499999999,0.0,-0.02,0.0,0.0,-0.02,0.0,1,Lying,4
2019-01-17,11:48:08,-4.8399997,0.0,8.099999,0.0,-0.02,0.0,0.0,-0.02,0.0,1,Lying,4
2019-01-17,11:48:08,-4.8399997,0.0,8.099999,0.01,-0.01,0.0,0.01,-0.01,0.0,1,Lying,4
2019-01-17,11:48:08,-4.89,0.0,7.96,0.01,-0.01,0.0,0.01,-0.01,0.0,1,Lying,4
2019-01-17,11:48:08,-4.89,0.0,7.96,0.01,0.01,0.0,0.01,0.01,0.0,1,Lying,4
2019-01-17,11:48:08,-4.9799995,0.01999998,7.8999996,0.01,0.01,0.0,0.01,0.01,0.0,1,Lying,4
2019-01-17,11:48:08,-4.9799995,0.01999998,7.8999996,0.0,0.02,0.0,0.0,0.02,0.0,1,Lying,4
2019-01-17,11:48:08,-4.93,0.04000002,7.9699993000000005,0.0,-0.01,0.0,0.0,-0.01,0.0,1,Lying,4
2019-01-17,11:48:08,-4.93,0.04000002,7.9699993000000005,0.0,-0.01,0.0,0.0,-0.01,0.0,1,Lying,4
2019-01-17,11:48:08,-4.89,-0.01999998,8.059999000000001,0.0,-0.01,0.0,0.0,-0.01,0.0,1,Lying,4
2019-01-17,11:48:08,-4.89,-0.01999998,8.059999000000001,0.0,-0.03,0.0,0.0,-0.03,0.0,1,Lying,4
2019-01-17,11:48:08,-5.0299997,0.0,7.9399996,0.0,-0.03,0.0,0.0,-0.03,0.0,1,Lying,4
2019-01-17,11:48:08,-5.0299997,0.0,7.9399996,0.01,0.02,0.0,0.01,0.02,0.0,1,Lying,4
2019-01-17,11:48:08,-4.93,0.01999998,7.9399996,0.01,0.02,0.0,0.01,0.02,0.0,1,Lying,4
2019-01-17,11:48:08,-4.93,0.01999998,7.9399996,0.0,0.0,0.01,0.0,0.0,0.01,1,Lying,4
2019-01-17,11:48:08,-4.8999996,0.00999999,7.9699993000000005,0.0,0.0,0.01,0.0,0.0,0.01,1,Lying,4
2019-01-17,11:48:08,-4.8999996,0.00999999,7.9699993000000005,0.0,-0.01,0.0,0.0,-0.01,0.0,1,Lying,4
2019-01-17,11:48:08,-4.95,0.030000031,8.009999,0.0,-0.01,0.0,0.0,-0.01,0.0,1,Lying,4
2019-01-17,11:48:08,-4.95,0.030000031,8.009999,0.0,0.0,0.0,0.0,0.0,0.0,1,Lying,4
2019-01-17,11:48:09,-4.91,0.00999999,8.009999,0.0,0.0,0.0,0.0,0.0,0.0,1,Lying,4
2019-01-17,11:48:09,-4.91,0.00999999,8.009999,0.0,0.0,0.0,0.0,0.0,0.0,1,Lying,4
2019-01-17,11:48:09,-4.97,0.050000012,7.99,0.0,0.0,0.0,0.0,0.0,0.0,1,Lying,4
2019-01-17,11:48:09,-4.97,0.050000012,7.99,0.0,0.0,0.0,0.0,0.0,0.0,1,Lying,4
2019-01-17,11:48:09,-4.8799996,0.030000031,7.9699993000000005,0.0,-0.01,0.0,0.0,-0.01,0.0,1,Lying,4
2019-01-17,11:48:09,-4.8799996,0.030000031,7.9699993000000005,0.0,-0.01,0.0,0.0,-0.01,0.0,1,Lying,4
2019-01-17,11:48:09,-4.97,0.030000031,7.93,0.0,-0.01,0.0,0.0,-0.01,0.0,1,Lying,4
2019-01-17,11:48:09,-4.97,0.030000031,7.93,0.0,0.0,0.0,0.0,0.0,0.0,1,Lying,4
2019-01-17,11:48:09,-4.9199996,0.01999998,8.04,0.0,0.0,0.0,0.0,0.0,0.0,1,Lying,4
2019-01-17,11:48:09,-4.9199996,0.01999998,8.04,0.0,-0.01,0.0,0.0,-0.01,0.0,1,Lying,4
2019-01-17,11:48:09,-4.8999996,0.030000031,8.0,0.0,-0.01,0.0,0.0,-0.01,0.0,1,Lying,4
2019-01-17,11:48:09,-4.8999996,0.030000031,8.0,0.0,0.0,0.0,0.0,0.0,0.0,1,Lying,4
2019-01-17,11:48:09,-4.93,0.0,7.95,0.0,0.0,0.0,0.0,0.0,0.0,1,Lying,4
2019-01-17,11:48:09,-4.93,0.0,7.95,0.0,0.0,0.0,0.0,0.0,0.0,1,Lying,4
2019-01-17,11:48:09,-4.8799996,0.030000031,7.9699993000000005,0.0,0.0,0.0,0.0,0.0,0.0,1,Lying,4
2019-01-17,11:48:09,-4.8799996,0.030000031,7.9699993000000005,0.0,0.0,0.0,0.0,0.0,0.0,1,Lying,4
2019-01-17,11:48:09,-4.9599996,0.01999998,7.849999400000001,0.0,0.0,0.0,0.0,0.0,0.0,1,Lying,4
2019-01-17,11:48:09,-4.9599996,0.01999998,7.849999400000001,0.0,0.0,0.0,0.0,0.0,0.0,1,Lying,4
2019-01-17,11:48:09,-4.97,-0.01999998,7.9699993000000005,0.0,0.0,0.0,0.0,0.0,0.0,1,Lying,4
2019-01-17,11:48:09,-4.97,-0.01999998,7.9699993000000005,0.0,-0.01,0.0,0.0,-0.01,0.0,1,Lying,4
2019-01-17,11:48:09,-4.89,0.04000002,7.96,0.0,-0.01,0.0,0.0,-0.01,0.0,1,Lying,4
2019-01-17,11:48:09,-4.89,0.04000002,7.96,0.0,-0.03,0.01,0.0,-0.03,0.01,1,Lying,4
2019-01-17,11:48:09,-4.8799996,0.04000002,7.99,0.0,-0.03,0.01,0.0,-0.03,0.01,1,Lying,4
2019-01-17,11:48:09,-4.8799996,0.04000002,7.99,0.0,-0.04,0.0,0.0,-0.04,0.0,1,Lying,4
2019-01-17,11:48:09,-4.91,-0.01999998,8.049999,0.0,-0.04,0.0,0.0,-0.04,0.0,1,Lying,4
2019-01-17,11:48:09,-4.91,-0.01999998,8.049999,0.0,-0.03,0.0,0.0,-0.03,0.0,1,Lying,4
2019-01-17,11:48:09,-4.93,-0.00999999,7.9199996,0.0,-0.03,0.0,0.0,-0.03,0.0,1,Lying,4
2019-01-17,11:48:09,-4.93,-0.00999999,7.9199996,0.0,0.01,0.0,0.0,0.01,0.0,1,Lying,4
2019-01-17,11:48:09,-4.9399996,0.01999998,7.9799995,0.0,0.01,0.0,0.0,0.01,0.0,1,Lying,4
2019-01-17,11:48:09,-4.9399996,0.01999998,7.9799995,0.0,0.0,0.0,0.0,0.0,0.0,1,Lying,4
2019-01-17,11:48:09,-4.8999996,-0.01999998,7.96,0.0,0.0,0.0,0.0,0.0,0.0,1,Lying,4
2019-01-17,11:48:09,-4.8999996,-0.01999998,7.96,0.0,0.0,0.0,0.0,0.0,0.0,1,Lying,4
2019-01-17,11:48:09,-4.9399996,0.06999999,7.91,0.0,0.0,0.0,0.0,0.0,0.0,1,Lying,4
2019-01-17,11:48:09,-4.9399996,0.06999999,7.91,0.0,0.0,0.01,0.0,0.0,0.01,1,Lying,4
2019-01-17,11:48:09,-4.9199996,0.01999998,8.03,0.0,0.0,0.01,0.0,0.0,0.01,1,Lying,4
2019-01-17,11:48:09,-4.9199996,0.01999998,8.03,0.0,0.0,0.0,0.0,0.0,0.0,1,Lying,4
2019-01-17,11:48:09,-4.8599997,0.01999998,8.019999499999999,0.0,0.0,0.0,0.0,0.0,0.0,1,Lying,4
2019-01-17,11:48:09,-4.8599997,0.01999998,8.019999499999999,0.0,-0.02,0.0,0.0,-0.02,0.0,1,Lying,4
2019-01-17,11:48:09,-4.8799996,0.030000031,7.99,0.0,-0.02,0.0,0.0,-0.02,0.0,1,Lying,4
2019-01-17,11:48:09,-4.8799996,0.030000031,7.99,0.0,-0.01,0.0,0.0,-0.01,0.0,1,Lying,4
2019-01-17,11:48:09,-4.8999996,-0.00999999,7.96,0.0,-0.01,0.0,0.0,-0.01,0.0,1,Lying,4
2019-01-17,11:48:09,-4.8999996,-0.00999999,7.96,0.0,-0.01,0.0,0.0,-0.01,0.0,1,Lying,4
2019-01-17,11:48:09,-4.91,0.030000031,8.0,0.0,-0.01,0.0,0.0,-0.01,0.0,1,Lying,4
2019-01-17,11:48:09,-4.91,0.030000031,8.0,0.01,0.0,0.0,0.01,0.0,0.0,1,Lying,4
2019-01-17,11:48:09,-4.87,0.0,8.019999499999999,0.01,0.0,0.0,0.01,0.0,0.0,1,Lying,4
2019-01-17,11:48:09,-4.87,0.0,8.019999499999999,0.0,0.0,0.0,0.0,0.0,0.0,1,Lying,4
2019-01-17,11:48:09,-4.89,0.00999999,7.96,0.0,0.0,0.0,0.0,0.0,0.0,1,Lying,4
2019-01-17,11:48:10,-4.89,0.00999999,7.96,0.0,0.0,0.0,0.0,0.0,0.0,1,Lying,4
2019-01-17,11:48:10,-4.8999996,-0.00999999,7.9799995,0.0,0.0,0.0,0.0,0.0,0.0,1,Lying,4
2019-01-17,11:48:10,-4.8999996,-0.00999999,7.9799995,0.0,-0.01,0.01,0.0,-0.01,0.01,1,Lying,4
2019-01-17,11:48:10,-4.87,0.00999999,8.049999,0.0,-0.01,0.01,0.0,-0.01,0.01,1,Lying,4
2019-01-17,11:48:10,-4.87,0.00999999,8.049999,0.0,-0.02,0.01,0.0,-0.02,0.01,1,Lying,4
2019-01-17,11:48:10,-4.91,0.030000031,7.93,0.0,-0.02,0.01,0.0,-0.02,0.01,1,Lying,4
2019-01-17,11:48:10,-4.91,0.030000031,7.93,0.0,0.01,0.01,0.0,0.01,0.01,1,Lying,4
2019-01-17,11:48:10,-4.9799995,0.01999998,7.91,0.0,0.01,0.01,0.0,0.01,0.01,1,Lying,4
2019-01-17,11:48:10,-4.9799995,0.01999998,7.91,0.0,0.0,0.01,0.0,0.0,0.01,1,Lying,4
2019-01-17,11:48:10,-4.8199997,0.00999999,8.089999,0.0,0.0,0.01,0.0,0.0,0.01,1,Lying,4
2019-01-17,11:48:10,-4.8199997,0.00999999,8.089999,0.0,-0.04,0.01,0.0,-0.04,0.01,1,Lying,4
2019-01-17,11:48:10,-4.85,0.00999999,8.049999,0.0,-0.04,0.01,0.0,-0.04,0.01,1,Lying,4
2019-01-17,11:48:10,-4.85,0.00999999,8.049999,0.0,-0.02,0.01,0.0,-0.02,0.01,1,Lying,4
2019-01-17,11:48:10,-4.8599997,-0.00999999,8.009999,0.0,0.0,0.01,0.0,0.0,0.01,1,Lying,4
2019-01-17,11:48:10,-4.8599997,-0.00999999,8.009999,0.0,0.0,0.01,0.0,0.0,0.01,1,Lying,4
2019-01-17,11:48:10,-4.9199996,0.060000002000000004,7.9699993000000005,0.0,0.0,0.01,0.0,0.0,0.01,1,Lying,4
2019-01-17,11:48:10,-4.9199996,0.060000002000000004,7.9699993000000005,0.0,0.02,0.0,0.0,0.02,0.0,1,Lying,4
2019-01-17,11:48:10,-4.9399996,0.0,7.96,0.0,0.02,0.0,0.0,0.02,0.0,1,Lying,4
2019-01-17,11:48:10,-4.9399996,0.0,7.96,0.0,0.0,0.0,0.0,0.0,0.0,1,Lying,4
2019-01-17,11:48:10,-4.7999997,-0.03999999,8.049999,0.0,0.0,0.0,0.0,0.0,0.0,1,Lying,4
2019-01-17,11:48:10,-4.7999997,-0.03999999,8.049999,0.0,-0.02,0.01,0.0,-0.02,0.01,1,Lying,4
2019-01-17,11:48:10,-4.89,0.00999999,7.99,0.0,-0.02,0.01,0.0,-0.02,0.01,1,Lying,4
2019-01-17,11:48:10,-4.89,0.00999999,7.99,0.0,0.0,0.01,0.0,0.0,0.01,1,Lying,4
2019-01-17,11:48:10,-4.9199996,0.04000002,7.9799995,0.0,0.0,0.01,0.0,0.0,0.01,1,Lying,4
2019-01-17,11:48:10,-4.9199996,0.04000002,7.9799995,0.0,0.0,0.01,0.0,0.0,0.01,1,Lying,4
2019-01-17,11:48:10,-4.8599997,0.0,7.99,0.0,0.0,0.01,0.0,0.0,0.01,1,Lying,4
2019-01-17,11:48:10,-4.8599997,0.0,7.99,0.0,-0.01,0.0,0.0,-0.01,0.0,1,Lying,4
2019-01-17,11:48:10,-4.89,-0.060000002000000004,7.9799995,0.0,-0.01,0.0,0.0,-0.01,0.0,1,Lying,4
2019-01-17,11:48:10,-4.89,-0.060000002000000004,7.9799995,0.0,-0.01,0.0,0.0,-0.01,0.0,1,Lying,4
2019-01-17,11:48:10,-4.8199997,-0.00999999,8.0,0.0,-0.01,0.0,0.0,-0.01,0.0,1,Lying,4
2019-01-17,11:48:10,-4.8199997,-0.00999999,8.0,0.0,-0.02,0.0,0.0,-0.02,0.0,1,Lying,4
2019-01-17,11:48:10,-4.85,0.050000012,7.99,0.0,-0.02,0.0,0.0,-0.02,0.0,1,Lying,4
2019-01-17,11:48:10,-4.85,0.050000012,7.99,0.0,-0.01,0.01,0.0,-0.01,0.01,1,Lying,4
2019-01-17,11:48:10,-4.8199997,0.0,8.04,0.0,-0.01,0.01,0.0,-0.01,0.01,1,Lying,4
2019-01-17,11:48:10,-4.8199997,0.0,8.04,0.0,0.0,0.0,0.0,0.0,0.0,1,Lying,4
2019-01-17,11:48:10,-4.87,-0.030000001000000002,8.03,0.0,0.0,0.0,0.0,0.0,0.0,1,Lying,4
2019-01-17,11:48:10,-4.87,-0.030000001000000002,8.03,0.0,0.0,0.0,0.0,0.0,0.0,1,Lying,4
2019-01-17,11:48:10,-4.89,-0.01999998,8.009999,0.0,0.0,0.0,0.0,0.0,0.0,1,Lying,4
2019-01-17,11:48:10,-4.89,-0.01999998,8.009999,0.0,0.01,0.0,0.0,0.01,0.0,1,Lying,4
2019-01-17,11:48:10,-4.8299994,-0.00999999,7.9799995,0.0,0.01,0.0,0.0,0.01,0.0,1,Lying,4
2019-01-17,11:48:10,-4.8299994,-0.00999999,7.9799995,0.0,0.0,0.0,0.0,0.0,0.0,1,Lying,4
2019-01-17,11:48:10,-4.8999996,0.00999999,8.019999499999999,0.0,0.0,0.0,0.0,0.0,0.0,1,Lying,4
2019-01-17,11:48:10,-4.8999996,0.00999999,8.019999499999999,0.0,0.01,0.0,0.0,0.01,0.0,1,Lying,4
2019-01-17,11:48:10,-4.89,0.00999999,7.9199996,0.0,0.01,0.0,0.0,0.01,0.0,1,Lying,4
2019-01-17,11:48:11,-4.89,0.00999999,7.9199996,0.01,0.0,0.0,0.01,0.0,0.0,1,Lying,4
2019-01-17,11:48:11,-4.9199996,0.04000002,8.019999499999999,0.01,0.0,0.0,0.01,0.0,0.0,1,Lying,4
2019-01-17,11:48:11,-4.9199996,0.04000002,8.019999499999999,0.0,0.0,0.0,0.0,0.0,0.0,1,Lying,4
2019-01-17,11:48:11,-4.8299994,0.00999999,8.0,0.0,0.0,0.0,0.0,0.0,0.0,1,Lying,4
2019-01-17,11:48:11,-4.8299994,0.00999999,8.0,0.0,0.0,0.0,0.0,0.0,0.0,1,Lying,4
2019-01-17,11:48:11,-4.8999996,0.00999999,8.009999,0.0,0.0,0.0,0.0,0.0,0.0,1,Lying,4
2019-01-17,11:48:11,-4.8999996,0.00999999,8.009999,0.0,0.0,0.0,0.0,0.0,0.0,1,Lying,4
2019-01-17,11:48:11,-4.9599996,-0.01999998,7.8999996,0.0,0.0,0.0,0.0,0.0,0.0,1,Lying,4
2019-01-17,11:48:11,-4.9599996,-0.01999998,7.8999996,0.0,0.0,0.0,0.0,0.0,0.0,1,Lying,4
2019-01-17,11:48:11,-4.8799996,-0.00999999,7.9199996,0.0,0.0,0.0,0.0,0.0,0.0,1,Lying,4
2019-01-17,11:48:11,-4.8799996,-0.00999999,7.9199996,0.0,0.0,0.0,0.0,0.0,0.0,1,Lying,4
2019-01-17,11:48:11,-4.91,-0.01999998,8.03,0.0,0.0,0.0,0.0,0.0,0.0,1,Lying,4
2019-01-17,11:48:11,-4.91,-0.01999998,8.03,0.0,-0.01,0.0,0.0,-0.01,0.0,1,Lying,4
2019-01-17,11:48:11,-4.8399997,0.030000031,8.049999,0.0,-0.01,0.0,0.0,-0.01,0.0,1,Lying,4
2019-01-17,11:48:11,-4.8399997,0.030000031,8.049999,0.0,0.0,0.0,0.0,0.0,0.0,1,Lying,4
2019-01-17,11:48:11,-4.9799995,0.00999999,7.9199996,0.0,0.0,0.0,0.0,0.0,0.0,1,Lying,4
2019-01-17,11:48:11,-4.9799995,0.00999999,7.9199996,0.0,0.0,0.0,0.0,0.0,0.0,1,Lying,4
2019-01-17,11:48:11,-4.9999995,-0.00999999,7.9699993000000005,0.0,0.0,0.0,0.0,0.0,0.0,1,Lying,4
2019-01-17,11:48:11,-4.9999995,-0.00999999,7.9699993000000005,0.0,0.0,0.0,0.0,0.0,0.0,1,Lying,4
2019-01-17,11:48:11,-4.87,0.030000031,8.019999499999999,0.0,0.0,0.0,0.0,0.0,0.0,1,Lying,4
2019-01-17,11:48:11,-4.87,0.030000031,8.019999499999999,0.0,-0.02,0.0,0.0,-0.02,0.0,1,Lying,4
2019-01-17,11:48:11,-4.9199996,0.00999999,7.99,0.0,-0.02,0.0,0.0,-0.02,0.0,1,Lying,4
2019-01-17,11:48:11,-4.9199996,0.00999999,7.99,0.0,0.0,0.0,0.0,0.0,0.0,1,Lying,4
2019-01-17,11:48:11,-4.93,-0.01999998,7.9399996,0.0,0.0,0.0,0.0,0.0,0.0,1,Lying,4
2019-01-17,11:48:11,-4.93,-0.01999998,7.9399996,0.0,0.0,0.0,0.0,0.0,0.0,1,Lying,4
2019-01-17,11:48:11,-4.9199996,0.01999998,7.99,0.0,0.0,0.0,0.0,0.0,0.0,1,Lying,4
2019-01-17,11:48:11,-4.9199996,0.01999998,7.99,0.0,-0.01,0.0,0.0,-0.01,0.0,1,Lying,4
2019-01-17,11:48:11,-4.89,-0.01999998,8.07,0.0,-0.01,0.0,0.0,-0.01,0.0,1,Lying,4
2019-01-17,11:48:11,-4.89,-0.01999998,8.07,0.0,-0.01,0.0,0.0,-0.01,0.0,1,Lying,4
2019-01-17,11:48:11,-4.87,0.04000002,7.93,0.0,-0.01,0.0,0.0,-0.01,0.0,1,Lying,4
2019-01-17,11:48:11,-4.87,0.04000002,7.93,0.0,0.0,0.0,0.0,0.0,0.0,1,Lying,4
2019-01-17,11:48:11,-4.91,0.00999999,7.9699993000000005,0.0,0.0,0.0,0.0,0.0,0.0,1,Lying,4
2019-01-17,11:48:11,-4.91,0.00999999,7.9699993000000005,0.0,0.0,0.0,0.0,0.0,0.0,1,Lying,4
2019-01-17,11:48:11,-4.89,0.0,7.9799995,0.0,0.0,0.0,0.0,0.0,0.0,1,Lying,4
2019-01-17,11:48:11,-4.89,0.0,7.9799995,0.0,-0.01,0.0,0.0,-0.01,0.0,1,Lying,4
2019-01-17,11:48:11,-4.9199996,0.04000002,7.99,0.0,-0.01,0.0,0.0,-0.01,0.0,1,Lying,4
2019-01-17,11:48:11,-4.9199996,0.04000002,7.99,0.0,-0.01,0.0,0.0,-0.01,0.0,1,Lying,4
2019-01-17,11:48:11,-4.91,0.01999998,7.9699993000000005,0.0,-0.01,0.0,0.0,-0.01,0.0,1,Lying,4
2019-01-17,11:48:11,-4.91,0.01999998,7.9699993000000005,0.0,0.0,0.0,0.0,0.0,0.0,1,Lying,4
2019-01-17,11:48:11,-4.9399996,-0.00999999,7.96,0.0,0.0,0.0,0.0,0.0,0.0,1,Lying,4
2019-01-17,11:48:11,-4.9399996,-0.00999999,7.96,0.0,0.0,0.0,0.0,0.0,0.0,1,Lying,4
2019-01-17,11:48:11,-4.93,0.01999998,7.96,0.0,0.0,0.0,0.0,0.0,0.0,1,Lying,4
2019-01-17,11:48:11,-4.93,0.01999998,7.96,0.0,0.0,0.0,0.0,0.0,0.0,1,Lying,4
2019-01-17,11:48:11,-4.9199996,-0.00999999,8.019999499999999,0.0,0.0,0.0,0.0,0.0,0.0,1,Lying,4
2019-01-17,11:48:11,-4.9199996,-0.00999999,8.019999499999999,0.0,-0.01,0.0,0.0,-0.01,0.0,1,Lying,4
2019-01-17,11:48:11,-4.8599997,0.060000002000000004,7.9699993000000005,0.0,-0.01,0.0,0.0,-0.01,0.0,1,Lying,4
2019-01-17,11:48:12,-4.8599997,0.060000002000000004,7.9699993000000005,0.0,0.0,0.0,0.0,0.0,0.0,1,Lying,4
2019-01-17,11:48:12,-4.9799995,-0.01999998,7.95,0.0,0.0,0.0,0.0,0.0,0.0,1,Lying,4
2019-01-17,11:48:12,-4.9799995,-0.01999998,7.95,0.0,0.0,0.0,0.0,0.0,0.0,1,Lying,4
2019-01-17,11:48:12,-4.93,0.01999998,7.9799995,0.0,0.0,0.0,0.0,0.0,0.0,1,Lying,4
2019-01-17,11:48:12,-4.93,0.01999998,7.9799995,0.0,-0.01,0.01,0.0,-0.01,0.01,1,Lying,4
2019-01-17,11:48:12,-4.89,0.04000002,7.95,0.0,-0.01,0.01,0.0,-0.01,0.01,1,Lying,4
2019-01-17,11:48:12,-4.89,0.04000002,7.95,0.0,-0.01,0.0,0.0,-0.01,0.0,1,Lying,4
2019-01-17,11:48:12,-4.91,0.00999999,8.03,0.0,-0.01,0.0,0.0,-0.01,0.0,1,Lying,4
2019-01-17,11:48:12,-4.91,0.00999999,8.03,0.0,0.0,0.0,0.0,0.0,0.0,1,Lying,4
2019-01-17,11:48:12,-4.9199996,0.04000002,7.93,0.0,0.0,0.0,0.0,0.0,0.0,1,Lying,4
2019-01-17,11:48:12,-4.9199996,0.04000002,7.93,0.0,0.0,0.0,0.0,0.0,0.0,1,Lying,4
2019-01-17,11:48:12,-4.91,0.04000002,7.9399996,0.0,0.0,0.0,0.0,0.0,0.0,1,Lying,4
2019-01-17,11:48:12,-4.91,0.04000002,7.9399996,0.0,-0.01,0.0,0.0,-0.01,0.0,1,Lying,4
2019-01-17,11:48:12,-4.95,0.050000012,7.9699993000000005,0.0,0.0,0.0,0.0,0.0,0.0,1,Lying,4
2019-01-17,11:48:12,-4.95,0.050000012,7.9699993000000005,0.0,0.0,0.0,0.0,0.0,0.0,1,Lying,4
2019-01-17,11:48:12,-4.9399996,0.00999999,7.99,0.0,0.0,0.0,0.0,0.0,0.0,1,Lying,4
2019-01-17,11:48:12,-4.9399996,0.00999999,7.99,0.0,0.0,0.0,0.0,0.0,0.0,1,Lying,4
2019-01-17,11:48:12,-4.87,-0.00999999,8.009999,0.0,0.0,0.0,0.0,0.0,0.0,1,Lying,4
2019-01-17,11:48:12,-4.87,-0.00999999,8.009999,0.0,-0.01,0.01,0.0,-0.01,0.01,1,Lying,4
2019-01-17,11:48:12,-4.8999996,0.04000002,7.99,0.0,-0.01,0.01,0.0,-0.01,0.01,1,Lying,4
2019-01-17,11:48:12,-4.8999996,0.04000002,7.99,0.0,0.0,0.0,0.0,0.0,0.0,1,Lying,4
2019-01-17,11:48:12,-4.91,0.04000002,7.96,0.0,0.0,0.0,0.0,0.0,0.0,1,Lying,4
2019-01-17,11:48:12,-4.91,0.04000002,7.96,0.0,0.0,0.0,0.0,0.0,0.0,1,Lying,4
2019-01-17,11:48:12,-4.89,0.00999999,7.93,0.0,0.0,0.0,0.0,0.0,0.0,1,Lying,4
2019-01-17,11:48:12,-4.89,0.00999999,7.93,0.0,0.0,0.0,0.0,0.0,0.0,1,Lying,4
2019-01-17,11:48:12,-4.9599996,0.030000031,7.95,0.0,0.0,0.0,0.0,0.0,0.0,1,Lying,4
2019-01-17,11:48:12,-4.9599996,0.030000031,7.95,0.0,0.0,0.0,0.0,0.0,0.0,1,Lying,4
2019-01-17,11:48:12,-4.8799996,0.00999999,7.99,0.0,0.0,0.0,0.0,0.0,0.0,1,Lying,4
2019-01-17,11:48:12,-4.8799996,0.00999999,7.99,0.0,-0.01,0.01,0.0,-0.01,0.01,1,Lying,4
2019-01-17,11:48:12,-4.91,0.050000012,8.009999,0.0,-0.01,0.01,0.0,-0.01,0.01,1,Lying,4
2019-01-17,11:48:12,-4.91,0.050000012,8.009999,0.0,-0.01,0.01,0.0,-0.01,0.01,1,Lying,4
2019-01-17,11:48:12,-4.8799996,0.00999999,8.0,0.0,-0.01,0.01,0.0,-0.01,0.01,1,Lying,4
2019-01-17,11:48:12,-4.8799996,0.00999999,8.0,0.0,-0.01,0.0,0.0,-0.01,0.0,1,Lying,4
2019-01-17,11:48:12,-4.9399996,0.030000031,7.9199996,0.0,-0.01,0.0,0.0,-0.01,0.0,1,Lying,4
2019-01-17,11:48:12,-4.9399996,0.030000031,7.9199996,0.0,0.0,0.01,0.0,0.0,0.01,1,Lying,4
2019-01-17,11:48:12,-4.8999996,-0.01999998,8.009999,0.0,0.0,0.01,0.0,0.0,0.01,1,Lying,4
2019-01-17,11:48:12,-4.8999996,-0.01999998,8.009999,0.0,-0.01,0.01,0.0,-0.01,0.01,1,Lying,4
2019-01-17,11:48:12,-4.85,0.04000002,7.99,0.0,-0.01,0.01,0.0,-0.01,0.01,1,Lying,4
2019-01-17,11:48:12,-4.85,0.04000002,7.99,0.0,-0.01,0.01,0.0,-0.01,0.01,1,Lying,4
2019-01-17,11:48:12,-4.93,0.030000031,7.93,0.0,-0.01,0.01,0.0,-0.01,0.01,1,Lying,4
2019-01-17,11:48:12,-4.93,0.030000031,7.93,0.0,0.0,0.01,0.0,0.0,0.01,1,Lying,4
2019-01-17,11:48:12,-4.93,0.04000002,8.009999,0.0,0.0,0.01,0.0,0.0,0.01,1,Lying,4
2019-01-17,11:48:12,-4.93,0.04000002,8.009999,0.0,-0.01,0.02,0.0,-0.01,0.02,1,Lying,4
2019-01-17,11:48:12,-4.8999996,0.00999999,7.9399996,0.0,-0.01,0.02,0.0,-0.01,0.02,1,Lying,4
2019-01-17,11:48:12,-4.8999996,0.00999999,7.9399996,0.0,-0.01,0.0,0.0,-0.01,0.0,1,Lying,4
2019-01-17,11:48:12,-4.9199996,-0.00999999,7.9699993000000005,0.0,-0.01,0.0,0.0,-0.01,0.0,1,Lying,4
2019-01-17,11:48:12,-4.9199996,-0.00999999,7.9699993000000005,0.0,0.0,0.0,0.0,0.0,0.0,1,Lying,4
2019-01-17,11:48:12,-4.87,0.00999999,7.9799995,0.0,0.0,0.0,0.0,0.0,0.0,1,Lying,4
2019-01-17,11:48:13,-4.87,0.00999999,7.9799995,0.0,-0.01,0.0,0.0,-0.01,0.0,1,Lying,4
2019-01-17,11:48:13,-4.89,-0.01999998,8.03,0.0,-0.01,0.01,0.0,-0.01,0.01,1,Lying,4
2019-01-17,11:48:13,-4.89,-0.01999998,8.03,0.0,-0.01,0.01,0.0,-0.01,0.01,1,Lying,4
2019-01-17,11:48:13,-4.89,0.050000012,7.95,0.0,-0.01,0.01,0.0,-0.01,0.01,1,Lying,4
2019-01-17,11:48:13,-4.89,0.050000012,7.95,0.0,0.0,0.01,0.0,0.0,0.01,1,Lying,4
2019-01-17,11:48:13,-4.9399996,-0.01999998,7.9699993000000005,0.0,0.0,0.01,0.0,0.0,0.01,1,Lying,4
2019-01-17,11:48:13,-4.9399996,-0.01999998,7.9699993000000005,0.0,-0.01,0.0,0.0,-0.01,0.0,1,Lying,4
2019-01-17,11:48:13,-4.8399997,0.00999999,8.009999,0.0,-0.01,0.0,0.0,-0.01,0.0,1,Lying,4
2019-01-17,11:48:13,-4.8399997,0.00999999,8.009999,0.0,-0.01,0.01,0.0,-0.01,0.01,1,Lying,4
2019-01-17,11:48:13,-4.8799996,0.030000031,8.0,0.0,-0.01,0.01,0.0,-0.01,0.01,1,Lying,4
2019-01-17,11:48:13,-4.8799996,0.030000031,8.0,0.0,0.0,0.0,0.0,0.0,0.0,1,Lying,4
2019-01-17,11:48:13,-4.93,-0.01999998,8.019999499999999,0.0,0.0,0.0,0.0,0.0,0.0,1,Lying,4
2019-01-17,11:48:13,-4.93,-0.01999998,8.019999499999999,0.0,0.0,0.0,0.0,0.0,0.0,1,Lying,4
2019-01-17,11:48:13,-4.85,0.030000031,8.009999,0.0,0.0,0.0,0.0,0.0,0.0,1,Lying,4
2019-01-17,11:48:13,-4.85,0.030000031,8.009999,0.0,0.0,0.0,0.0,0.0,0.0,1,Lying,4
2019-01-17,11:48:13,-4.9199996,-0.00999999,7.99,0.0,0.0,0.0,0.0,0.0,0.0,1,Lying,4
2019-01-17,11:48:13,-4.9199996,-0.00999999,7.99,0.0,0.0,0.0,0.0,0.0,0.0,1,Lying,4
2019-01-17,11:48:13,-4.89,0.0,7.9699993000000005,0.0,0.0,0.0,0.0,0.0,0.0,1,Lying,4
2019-01-17,11:48:13,-4.89,0.0,7.9699993000000005,0.0,0.0,0.01,0.0,0.0,0.01,1,Lying,4
2019-01-17,11:48:13,-4.8999996,0.00999999,7.93,0.0,0.0,0.01,0.0,0.0,0.01,1,Lying,4
2019-01-17,11:48:13,-4.8999996,0.00999999,7.93,0.0,0.0,0.0,0.0,0.0,0.0,1,Lying,4
2019-01-17,11:48:13,-4.8999996,0.04000002,8.019999499999999,0.0,0.0,0.0,0.0,0.0,0.0,1,Lying,4
2019-01-17,11:48:13,-4.8999996,0.04000002,8.019999499999999,0.0,0.0,0.0,0.0,0.0,0.0,1,Lying,4
2019-01-17,11:48:13,-4.89,0.0,7.96,0.0,0.0,0.0,0.0,0.0,0.0,1,Lying,4
2019-01-17,11:48:13,-4.89,0.0,7.96,0.0,0.0,0.0,0.0,0.0,0.0,1,Lying,4
2019-01-17,11:48:13,-4.8599997,0.0,8.059999000000001,0.0,0.0,0.0,0.0,0.0,0.0,1,Lying,4
2019-01-17,11:48:13,-4.8599997,0.0,8.059999000000001,0.0,0.0,0.0,0.0,0.0,0.0,1,Lying,4
2019-01-17,11:48:13,-4.8799996,-0.00999999,7.9699993000000005,0.0,0.0,0.0,0.0,0.0,0.0,1,Lying,4
2019-01-17,11:48:13,-4.8799996,-0.00999999,7.9699993000000005,0.01,0.0,0.0,0.01,0.0,0.0,1,Lying,4
2019-01-17,11:48:13,-4.9399996,0.0,7.95,0.01,0.0,0.0,0.01,0.0,0.0,1,Lying,4
2019-01-17,11:48:13,-4.9399996,0.0,7.95,0.0,0.0,0.0,0.0,0.0,0.0,1,Lying,4
2019-01-17,11:48:13,-4.8299994,0.04000002,8.049999,0.0,0.0,0.0,0.0,0.0,0.0,1,Lying,4
2019-01-17,11:48:13,-4.8299994,0.04000002,8.049999,0.0,0.0,0.0,0.0,0.0,0.0,1,Lying,4
2019-01-17,11:48:13,-4.9199996,0.00999999,8.0,0.0,0.0,0.0,0.0,0.0,0.0,1,Lying,4
2019-01-17,11:48:13,-4.9199996,0.00999999,8.0,0.0,0.0,0.0,0.0,0.0,0.0,1,Lying,4
2019-01-17,11:48:13,-4.8999996,0.0,8.0,0.0,0.0,0.0,0.0,0.0,0.0,1,Lying,4
2019-01-17,11:48:13,-4.8999996,0.0,8.0,0.01,0.01,0.0,0.01,0.01,0.0,1,Lying,4
2019-01-17,11:48:13,-4.97,0.030000031,7.9699993000000005,0.01,0.01,0.0,0.01,0.01,0.0,1,Lying,4
2019-01-17,11:48:13,-4.97,0.030000031,7.9699993000000005,0.0,0.0,0.0,0.0,0.0,0.0,1,Lying,4
2019-01-17,11:48:13,-4.8799996,0.0,7.99,0.0,0.0,0.0,0.0,0.0,0.0,1,Lying,4
2019-01-17,11:48:13,-4.8799996,0.0,7.99,0.0,0.0,0.0,0.0,0.0,0.0,1,Lying,4
2019-01-17,11:48:13,-4.8999996,0.00999999,7.9699993000000005,0.0,0.0,0.0,0.0,0.0,0.0,1,Lying,4
2019-01-17,11:48:13,-4.8999996,0.00999999,7.9699993000000005,0.0,0.0,0.0,0.0,0.0,0.0,1,Lying,4
2019-01-17,11:48:13,-4.95,0.04000002,7.9399996,0.0,0.0,0.0,0.0,0.0,0.0,1,Lying,4
2019-01-17,11:48:13,-4.95,0.04000002,7.9399996,0.0,0.0,0.01,0.0,0.0,0.01,1,Lying,4
2019-01-17,11:48:13,-4.9199996,0.00999999,8.019999499999999,0.0,0.0,0.01,0.0,0.0,0.01,1,Lying,4
2019-01-17,11:48:14,-4.9199996,0.00999999,8.019999499999999,0.0,0.0,0.0,0.0,0.0,0.0,1,Lying,4
2019-01-17,11:48:14,-4.8799996,0.030000031,8.009999,0.0,0.0,0.0,0.0,0.0,0.0,1,Lying,4
2019-01-17,11:48:14,-4.8799996,0.030000031,8.009999,0.0,0.0,0.0,0.0,0.0,0.0,1,Lying,4
2019-01-17,11:48:14,-4.9199996,0.01999998,8.03,0.0,0.0,0.0,0.0,0.0,0.0,1,Lying,4
2019-01-17,11:48:14,-4.9199996,0.01999998,8.03,0.0,0.0,0.0,0.0,0.0,0.0,1,Lying,4
2019-01-17,11:48:14,-4.89,0.0,8.0,0.0,0.0,0.0,0.0,0.0,0.0,1,Lying,4
2019-01-17,11:48:14,-4.89,0.0,8.0,0.0,0.0,0.0,0.0,0.0,0.0,1,Lying,4
2019-01-17,11:48:14,-4.93,0.00999999,7.99,0.0,0.0,0.0,0.0,0.0,0.0,1,Lying,4
2019-01-17,11:48:14,-4.93,0.00999999,7.99,0.0,0.0,0.0,0.0,0.0,0.0,1,Lying,4
2019-01-17,11:48:14,-4.8999996,-0.00999999,8.019999499999999,0.0,0.0,0.0,0.0,0.0,0.0,1,Lying,4
2019-01-17,11:48:14,-4.8999996,-0.00999999,8.019999499999999,0.0,0.0,0.0,0.0,0.0,0.0,1,Lying,4
2019-01-17,11:48:14,-4.95,-0.030000001000000002,7.9799995,0.0,0.0,0.0,0.0,0.0,0.0,1,Lying,4
2019-01-17,11:48:14,-4.95,-0.030000001000000002,7.9799995,0.0,0.01,0.0,0.0,0.01,0.0,1,Lying,4
2019-01-17,11:48:14,-4.9199996,0.00999999,7.8699994,0.0,0.01,0.0,0.0,0.01,0.0,1,Lying,4
2019-01-17,11:48:14,-4.9199996,0.00999999,7.8699994,0.0,-0.01,0.0,0.0,-0.01,0.0,1,Lying,4
2019-01-17,11:48:14,-4.91,-0.00999999,7.99,0.0,-0.01,0.0,0.0,-0.01,0.0,1,Lying,4
2019-01-17,11:48:14,-4.91,-0.00999999,7.99,0.0,-0.02,0.0,0.0,-0.02,0.0,1,Lying,4
2019-01-17,11:48:14,-4.97,0.04000002,7.9699993000000005,0.0,-0.02,0.0,0.0,-0.02,0.0,1,Lying,4
2019-01-17,11:48:14,-4.97,0.04000002,7.9699993000000005,0.0,0.01,0.0,0.0,0.01,0.0,1,Lying,4
2019-01-17,11:48:14,-4.9599996,-0.01999998,7.9799995,0.0,0.01,0.0,0.0,0.01,0.0,1,Lying,4
2019-01-17,11:48:14,-4.9599996,-0.01999998,7.9799995,0.0,0.0,0.0,0.0,0.0,0.0,1,Lying,4
2019-01-17,11:48:14,-4.8799996,0.04000002,7.96,0.0,0.0,0.0,0.0,0.0,0.0,1,Lying,4
2019-01-17,11:48:14,-4.8799996,0.04000002,7.96,0.0,-0.01,0.01,0.0,-0.01,0.01,1,Lying,4
2019-01-17,11:48:14,-4.9199996,0.0,7.9199996,0.0,-0.01,0.01,0.0,-0.01,0.01,1,Lying,4
2019-01-17,11:48:14,-4.9199996,0.0,7.9199996,0.0,0.0,0.0,0.0,0.0,0.0,1,Lying,4
2019-01-17,11:48:14,-4.9399996,0.00999999,8.009999,0.0,-0.01,0.0,0.0,-0.01,0.0,1,Lying,4
2019-01-17,11:48:14,-4.9399996,0.00999999,8.009999,0.0,-0.01,0.0,0.0,-0.01,0.0,1,Lying,4
2019-01-17,11:48:14,-4.93,0.030000031,7.9699993000000005,0.0,-0.01,0.0,0.0,-0.01,0.0,1,Lying,4
2019-01-17,11:48:14,-4.93,0.030000031,7.9699993000000005,0.0,0.0,0.0,0.0,0.0,0.0,1,Lying,4
2019-01-17,11:48:14,-4.87,0.04000002,7.95,0.0,0.0,0.0,0.0,0.0,0.0,1,Lying,4
2019-01-17,11:48:14,-4.87,0.04000002,7.95,0.0,-0.01,0.0,0.0,-0.01,0.0,1,Lying,4
2019-01-17,11:48:14,-4.9799995,-0.01999998,7.95,0.0,-0.01,0.0,0.0,-0.01,0.0,1,Lying,4
2019-01-17,11:48:14,-4.9799995,-0.01999998,7.95,0.0,0.02,0.0,0.0,0.02,0.0,1,Lying,4
2019-01-17,11:48:14,-4.9599996,0.01999998,7.95,0.0,0.02,0.0,0.0,0.02,0.0,1,Lying,4
2019-01-17,11:48:14,-4.9599996,0.01999998,7.95,0.0,0.0,0.01,0.0,0.0,0.01,1,Lying,4
2019-01-17,11:48:14,-4.89,0.01999998,8.019999499999999,0.0,0.0,0.01,0.0,0.0,0.01,1,Lying,4
2019-01-17,11:48:14,-4.89,0.01999998,8.019999499999999,0.0,-0.03,0.0,0.0,-0.03,0.0,1,Lying,4
2019-01-17,11:48:14,-4.8799996,0.050000012,8.03,0.0,-0.03,0.0,0.0,-0.03,0.0,1,Lying,4
2019-01-17,11:48:14,-4.8799996,0.050000012,8.03,0.0,0.0,0.0,0.0,0.0,0.0,1,Lying,4
2019-01-17,11:48:14,-4.9599996,-0.01999998,7.96,0.0,0.0,0.0,0.0,0.0,0.0,1,Lying,4
2019-01-17,11:48:14,-4.9599996,-0.01999998,7.96,0.0,0.0,0.0,0.0,0.0,0.0,1,Lying,4
2019-01-17,11:48:14,-4.9199996,0.0,7.99,0.0,0.0,0.0,0.0,0.0,0.0,1,Lying,4
2019-01-17,11:48:14,-4.9199996,0.0,7.99,0.0,-0.01,0.0,0.0,-0.01,0.0,1,Lying,4
2019-01-17,11:48:14,-4.89,0.0,8.009999,0.0,-0.01,0.0,0.0,-0.01,0.0,1,Lying,4
2019-01-17,11:48:14,-4.89,0.0,8.009999,0.0,-0.01,0.0,0.0,-0.01,0.0,1,Lying,4
2019-01-17,11:48:14,-4.9399996,0.01999998,7.95,0.0,-0.01,0.0,0.0,-0.01,0.0,1,Lying,4
2019-01-17,11:48:15,-4.9399996,0.01999998,7.95,0.0,0.0,0.0,0.0,0.0,0.0,1,Lying,4
2019-01-17,11:48:15,-4.8999996,0.030000031,7.9199996,0.0,0.0,0.0,0.0,0.0,0.0,1,Lying,4
2019-01-17,11:48:15,-4.8999996,0.030000031,7.9199996,0.0,0.0,0.0,0.0,0.0,0.0,1,Lying,4
2019-01-17,11:48:15,-4.8799996,0.00999999,7.9699993000000005,0.0,0.0,0.0,0.0,0.0,0.0,1,Lying,4
2019-01-17,11:48:15,-4.8799996,0.00999999,7.9699993000000005,0.0,-0.01,0.0,0.0,-0.01,0.0,1,Lying,4
2019-01-17,11:48:15,-4.9399996,0.01999998,8.0,0.0,-0.01,0.0,0.0,-0.01,0.0,1,Lying,4
2019-01-17,11:48:15,-4.9399996,0.01999998,8.0,0.0,-0.01,0.0,0.0,-0.01,0.0,1,Lying,4
2019-01-17,11:48:15,-4.8999996,0.01999998,8.0,0.0,-0.01,0.0,0.0,-0.01,0.0,1,Lying,4
2019-01-17,11:48:15,-4.8999996,0.01999998,8.0,0.0,0.0,0.0,0.0,0.0,0.0,1,Lying,4
2019-01-17,11:48:15,-4.93,-0.01999998,7.96,0.0,0.0,0.0,0.0,0.0,0.0,1,Lying,4
2019-01-17,11:48:15,-4.93,-0.01999998,7.96,0.0,0.0,0.0,0.0,0.0,0.0,1,Lying,4
2019-01-17,11:48:15,-4.93,0.0,7.9799995,0.0,0.0,0.0,0.0,0.0,0.0,1,Lying,4
2019-01-17,11:48:15,-4.93,0.0,7.9799995,0.0,-0.01,0.0,0.0,-0.01,0.0,1,Lying,4
2019-01-17,11:48:15,-4.89,0.01999998,8.009999,0.0,-0.01,0.0,0.0,-0.01,0.0,1,Lying,4
2019-01-17,11:48:15,-4.89,0.01999998,8.009999,0.0,-0.01,0.01,0.0,-0.01,0.01,1,Lying,4
2019-01-17,11:48:15,-4.8999996,-0.00999999,7.99,0.0,-0.01,0.01,0.0,-0.01,0.01,1,Lying,4
2019-01-17,11:48:15,-4.8999996,-0.00999999,7.99,0.0,0.0,0.0,0.0,0.0,0.0,1,Lying,4
2019-01-17,11:48:15,-4.97,0.04000002,7.9199996,0.0,0.0,0.0,0.0,0.0,0.0,1,Lying,4
2019-01-17,11:48:15,-4.97,0.04000002,7.9199996,0.0,0.0,0.01,0.0,0.0,0.01,1,Lying,4
2019-01-17,11:48:15,-4.9199996,-0.00999999,7.99,0.0,0.0,0.01,0.0,0.0,0.01,1,Lying,4
2019-01-17,11:48:15,-4.9199996,-0.00999999,7.99,0.0,-0.01,0.01,0.0,-0.01,0.01,1,Lying,4
2019-01-17,11:48:15,-4.91,0.01999998,7.9699993000000005,0.0,-0.01,0.01,0.0,-0.01,0.01,1,Lying,4
2019-01-17,11:48:15,-4.91,0.01999998,7.9699993000000005,0.0,-0.01,0.01,0.0,-0.01,0.01,1,Lying,4
2019-01-17,11:48:15,-4.91,0.01999998,8.009999,0.0,-0.01,0.01,0.0,-0.01,0.01,1,Lying,4
2019-01-17,11:48:15,-4.91,0.01999998,8.009999,0.0,0.0,0.0,0.0,0.0,0.0,1,Lying,4
2019-01-17,11:48:15,-4.95,0.00999999,7.9399996,0.0,0.0,0.0,0.0,0.0,0.0,1,Lying,4
2019-01-17,11:48:15,-4.95,0.00999999,7.9399996,0.0,0.02,0.01,0.0,0.02,0.01,1,Lying,4
2019-01-17,11:48:15,-4.9399996,0.00999999,7.9399996,0.0,0.02,0.01,0.0,0.02,0.01,1,Lying,4
2019-01-17,11:48:15,-4.9399996,0.00999999,7.9399996,0.0,0.0,0.0,0.0,0.0,0.0,1,Lying,4
2019-01-17,11:48:15,-4.93,0.04000002,7.99,0.0,0.0,0.0,0.0,0.0,0.0,1,Lying,4
2019-01-17,11:48:15,-4.93,0.04000002,7.99,0.0,0.0,0.01,0.0,0.0,0.01,1,Lying,4
2019-01-17,11:48:15,-4.95,0.00999999,7.93,0.0,0.0,0.01,0.0,0.0,0.01,1,Lying,4
2019-01-17,11:48:15,-4.95,0.00999999,7.93,0.0,0.0,0.01,0.0,0.0,0.01,1,Lying,4
2019-01-17,11:48:15,-4.9599996,-0.00999999,7.99,0.0,0.0,0.01,0.0,0.0,0.01,1,Lying,4
2019-01-17,11:48:15,-4.9599996,-0.00999999,7.99,0.0,-0.01,0.01,0.0,-0.01,0.01,1,Lying,4
2019-01-17,11:48:15,-4.91,0.00999999,7.9199996,0.0,-0.01,0.01,0.0,-0.01,0.01,1,Lying,4
2019-01-17,11:48:15,-4.91,0.00999999,7.9199996,0.0,-0.01,0.01,0.0,-0.01,0.01,1,Lying,4
2019-01-17,11:48:15,-4.93,0.0,8.019999499999999,0.0,-0.01,0.01,0.0,-0.01,0.01,1,Lying,4
2019-01-17,11:48:15,-4.93,0.0,8.019999499999999,0.0,-0.01,0.01,0.0,-0.01,0.01,1,Lying,4
2019-01-17,11:48:15,-4.87,0.030000031,7.95,0.0,-0.01,0.01,0.0,-0.01,0.01,1,Lying,4
2019-01-17,11:48:15,-4.87,0.030000031,7.95,0.0,0.0,0.01,0.0,0.0,0.01,1,Lying,4
2019-01-17,11:48:15,-4.9799995,-0.01999998,7.91,0.0,0.0,0.01,0.0,0.0,0.01,1,Lying,4
2019-01-17,11:48:15,-4.9799995,-0.01999998,7.91,0.0,0.0,0.0,0.0,0.0,0.0,1,Lying,4
2019-01-17,11:48:15,-4.89,0.030000031,8.04,0.0,0.0,0.0,0.0,0.0,0.0,1,Lying,4
2019-01-17,11:48:15,-4.89,0.030000031,8.04,0.0,-0.02,0.01,0.0,-0.02,0.01,1,Lying,4
2019-01-17,11:48:15,-4.95,-0.030000001000000002,8.03,0.0,-0.02,0.01,0.0,-0.02,0.01,1,Lying,4
2019-01-17,11:48:15,-4.95,-0.030000001000000002,8.03,0.0,0.0,0.0,0.0,0.0,0.0,1,Lying,4
2019-01-17,11:48:16,-4.9599996,0.030000031,7.95,0.0,0.0,0.0,0.0,0.0,0.0,1,Lying,4
2019-01-17,11:48:16,-4.9599996,0.030000031,7.95,0.0,0.0,0.0,0.0,0.0,0.0,1,Lying,4
2019-01-17,11:48:16,-4.91,0.04000002,8.0,0.0,0.0,0.0,0.0,0.0,0.0,1,Lying,4
2019-01-17,11:48:16,-4.91,0.04000002,8.0,0.0,0.0,0.0,0.0,0.0,0.0,1,Lying,4
2019-01-17,11:48:16,-4.95,-0.049999982000000005,7.96,0.0,0.0,0.0,0.0,0.0,0.0,1,Lying,4
2019-01-17,11:48:16,-4.95,-0.049999982000000005,7.96,0.0,0.0,0.0,0.0,0.0,0.0,1,Lying,4
2019-01-17,11:48:16,-4.8799996,0.04000002,8.0,0.0,0.0,0.0,0.0,0.0,0.0,1,Lying,4
2019-01-17,11:48:16,-4.8799996,0.04000002,8.0,0.0,0.0,0.01,0.0,0.0,0.01,1,Lying,4
2019-01-17,11:48:16,-4.9599996,0.030000031,7.96,0.0,0.0,0.01,0.0,0.0,0.01,1,Lying,4
2019-01-17,11:48:16,-4.9599996,0.030000031,7.96,0.0,0.01,0.0,0.0,0.01,0.0,1,Lying,4
2019-01-17,11:48:16,-4.8999996,0.00999999,7.93,0.0,0.01,0.0,0.0,0.01,0.0,1,Lying,4
2019-01-17,11:48:16,-4.8999996,0.00999999,7.93,0.0,0.0,0.0,0.0,0.0,0.0,1,Lying,4
2019-01-17,11:48:16,-4.8999996,0.030000031,7.9799995,0.0,0.0,0.0,0.0,0.0,0.0,1,Lying,4
2019-01-17,11:48:16,-4.8999996,0.030000031,7.9799995,0.0,0.0,0.0,0.0,0.0,0.0,1,Lying,4
2019-01-17,11:48:16,-4.9599996,0.0,7.96,0.0,0.0,0.0,0.0,0.0,0.0,1,Lying,4
2019-01-17,11:48:16,-4.9599996,0.0,7.96,0.0,0.0,0.0,0.0,0.0,0.0,1,Lying,4
2019-01-17,11:48:16,-4.93,0.030000031,7.95,0.0,0.0,0.0,0.0,0.0,0.0,1,Lying,4
2019-01-17,11:48:16,-4.93,0.030000031,7.95,0.0,0.0,0.0,0.0,0.0,0.0,1,Lying,4
2019-01-17,11:48:16,-4.95,-0.00999999,8.0,0.0,0.0,0.0,0.0,0.0,0.0,1,Lying,4
2019-01-17,11:48:16,-4.95,-0.00999999,8.0,0.0,0.0,0.0,0.0,0.0,0.0,1,Lying,4
2019-01-17,11:48:16,-4.9199996,0.00999999,8.0,0.0,0.0,0.0,0.0,0.0,0.0,1,Lying,4
2019-01-17,11:48:16,-4.9199996,0.00999999,8.0,0.0,0.0,0.0,0.0,0.0,0.0,1,Lying,4
2019-01-17,11:48:16,-4.9599996,0.030000031,7.9399996,0.0,0.0,0.0,0.0,0.0,0.0,1,Lying,4
2019-01-17,11:48:16,-4.9599996,0.030000031,7.9399996,0.01,0.01,0.0,0.01,0.01,0.0,1,Lying,4
2019-01-17,11:48:16,-4.9999995,0.030000031,7.91,0.0,0.0,0.0,0.0,0.0,0.0,1,Lying,4
2019-01-17,11:48:16,-4.9999995,0.030000031,7.91,0.0,0.0,0.0,0.0,0.0,0.0,1,Lying,4
2019-01-17,11:48:16,-4.91,0.00999999,7.96,0.0,0.0,0.0,0.0,0.0,0.0,1,Lying,4
2019-01-17,11:48:16,-4.91,0.00999999,7.96,0.0,0.0,0.0,0.0,0.0,0.0,1,Lying,4
2019-01-17,11:48:16,-4.93,0.01999998,7.91,0.0,0.0,0.0,0.0,0.0,0.0,1,Lying,4
2019-01-17,11:48:16,-4.93,0.01999998,7.91,0.0,0.0,0.0,0.0,0.0,0.0,1,Lying,4
2019-01-17,11:48:16,-5.0699997,0.00999999,7.96,0.0,0.0,0.0,0.0,0.0,0.0,1,Lying,4
2019-01-17,11:48:16,-5.0699997,0.00999999,7.96,0.0,0.01,0.0,0.0,0.01,0.0,1,Lying,4
2019-01-17,11:48:16,-4.93,-0.03999999,7.93,0.0,0.01,0.0,0.0,0.01,0.0,1,Lying,4
2019-01-17,11:48:16,-4.93,-0.03999999,7.93,0.0,0.0,0.01,0.0,0.0,0.01,1,Lying,4
2019-01-17,11:48:16,-4.9399996,0.0,7.9799995,0.0,0.0,0.01,0.0,0.0,0.01,1,Lying,4
2019-01-17,11:48:16,-4.9399996,0.0,7.9799995,0.0,0.0,0.02,0.0,0.0,0.02,1,Lying,4
2019-01-17,11:48:16,-5.0299997,-0.00999999,7.95,0.0,0.0,0.02,0.0,0.0,0.02,1,Lying,4
2019-01-17,11:48:16,-5.0299997,-0.00999999,7.95,0.0,0.03,0.02,0.0,0.03,0.02,1,Lying,4
2019-01-17,11:48:16,-5.0199995,0.100000024,7.93,0.0,0.03,0.02,0.0,0.03,0.02,1,Lying,4
2019-01-17,11:48:16,-5.0199995,0.100000024,7.93,0.0,0.0,-0.02,0.0,0.0,-0.02,1,Lying,4
2019-01-17,11:48:16,-4.9599996,-0.01999998,7.9399996,0.0,0.0,-0.02,0.0,0.0,-0.02,1,Lying,4
2019-01-17,11:48:16,-4.9599996,-0.01999998,7.9399996,-0.01,-0.02,0.0,-0.01,-0.02,0.0,1,Lying,4
2019-01-17,11:48:16,-4.99,-0.030000001000000002,7.9399996,-0.01,-0.02,0.0,-0.01,-0.02,0.0,1,Lying,4
2019-01-17,11:48:16,-4.99,-0.030000001000000002,7.9399996,0.0,-0.03,-0.01,0.0,-0.03,-0.01,1,Lying,4
2019-01-17,11:48:16,-4.91,-0.030000001000000002,7.9799995,0.0,-0.03,-0.01,0.0,-0.03,-0.01,1,Lying,4
2019-01-17,11:48:16,-4.91,-0.030000001000000002,7.9799995,0.0,-0.02,0.01,0.0,-0.02,0.01,1,Lying,4
2019-01-17,11:48:17,-4.89,-0.030000001000000002,8.009999,0.0,-0.02,0.01,0.0,-0.02,0.01,1,Lying,4
2019-01-17,11:48:17,-4.89,-0.030000001000000002,8.009999,0.0,0.0,0.01,0.0,0.0,0.01,1,Lying,4
2019-01-17,11:48:17,-5.0399995,-0.00999999,7.91,0.0,0.0,0.01,0.0,0.0,0.01,1,Lying,4
2019-01-17,11:48:17,-5.0399995,-0.00999999,7.91,0.0,0.04,0.0,0.0,0.04,0.0,1,Lying,4
2019-01-17,11:48:17,-4.9799995,-0.060000002000000004,7.95,0.0,0.04,0.0,0.0,0.04,0.0,1,Lying,4
2019-01-17,11:48:17,-4.9799995,-0.060000002000000004,7.95,0.0,0.01,0.0,0.0,0.01,0.0,1,Lying,4
2019-01-17,11:48:17,-4.95,-0.030000001000000002,7.91,0.0,0.01,0.0,0.0,0.01,0.0,1,Lying,4
2019-01-17,11:48:17,-4.95,-0.030000001000000002,7.91,0.0,-0.02,0.01,0.0,-0.02,0.01,1,Lying,4
2019-01-17,11:48:17,-4.93,0.0,7.9799995,0.0,-0.02,0.01,0.0,-0.02,0.01,1,Lying,4
2019-01-17,11:48:17,-4.93,0.0,7.9799995,0.0,-0.02,0.0,0.0,-0.02,0.0,1,Lying,4
2019-01-17,11:48:17,-4.9399996,-0.049999982000000005,7.9399996,0.0,-0.02,0.0,0.0,-0.02,0.0,1,Lying,4
2019-01-17,11:48:17,-4.9399996,-0.049999982000000005,7.9399996,0.0,-0.01,0.0,0.0,-0.01,0.0,1,Lying,4
2019-01-17,11:48:17,-4.8799996,-0.049999982000000005,7.9799995,0.0,-0.01,0.0,0.0,-0.01,0.0,1,Lying,4
2019-01-17,11:48:17,-4.8799996,-0.049999982000000005,7.9799995,0.0,0.0,0.0,0.0,0.0,0.0,1,Lying,4
2019-01-17,11:48:17,-4.99,-0.030000001000000002,7.8699994,0.0,0.0,0.0,0.0,0.0,0.0,1,Lying,4
2019-01-17,11:48:17,-4.99,-0.030000001000000002,7.8699994,0.0,0.02,0.0,0.0,0.02,0.0,1,Lying,4
2019-01-17,11:48:17,-5.0099998,-0.00999999,7.9399996,0.0,0.02,0.0,0.0,0.02,0.0,1,Lying,4
2019-01-17,11:48:17,-5.0099998,-0.00999999,7.9399996,0.0,0.02,0.01,0.0,0.02,0.01,1,Lying,4
2019-01-17,11:48:17,-5.0499997,0.01999998,7.8699994,0.0,0.02,0.01,0.0,0.02,0.01,1,Lying,4
2019-01-17,11:48:17,-5.0499997,0.01999998,7.8699994,0.0,0.0,0.0,0.0,0.0,0.0,1,Lying,4
2019-01-17,11:48:17,-4.99,-0.030000001000000002,7.95,0.0,0.0,0.0,0.0,0.0,0.0,1,Lying,4
2019-01-17,11:48:17,-4.99,-0.030000001000000002,7.95,0.0,0.0,0.01,0.0,0.0,0.01,1,Lying,4
2019-01-17,11:48:17,-5.0199995,-0.030000001000000002,7.91,0.0,0.0,0.01,0.0,0.0,0.01,1,Lying,4
2019-01-17,11:48:17,-5.0199995,-0.030000001000000002,7.91,0.0,0.0,0.0,0.0,0.0,0.0,1,Lying,4
2019-01-17,11:48:17,-4.9799995,-0.03999999,7.89,0.0,0.0,0.0,0.0,0.0,0.0,1,Lying,4
2019-01-17,11:48:17,-4.9799995,-0.03999999,7.89,0.0,0.0,0.0,0.0,0.0,0.0,1,Lying,4
2019-01-17,11:48:17,-4.9999995,-0.03999999,7.93,0.0,0.0,0.0,0.0,0.0,0.0,1,Lying,4
2019-01-17,11:48:17,-4.9999995,-0.03999999,7.93,0.0,-0.01,0.0,0.0,-0.01,0.0,1,Lying,4
2019-01-17,11:48:17,-4.9799995,-0.00999999,7.95,0.0,-0.01,0.0,0.0,-0.01,0.0,1,Lying,4
2019-01-17,11:48:17,-4.9799995,-0.00999999,7.95,0.0,-0.01,0.0,0.0,-0.01,0.0,1,Lying,4
2019-01-17,11:48:17,-4.97,-0.01999998,7.99,0.0,-0.01,0.0,0.0,-0.01,0.0,1,Lying,4
2019-01-17,11:48:17,-4.97,-0.01999998,7.99,0.0,-0.01,0.0,0.0,-0.01,0.0,1,Lying,4
2019-01-17,11:48:17,-5.0199995,-0.06999999,7.9199996,0.0,-0.01,0.0,0.0,-0.01,0.0,1,Lying,4
2019-01-17,11:48:17,-5.0199995,-0.06999999,7.9199996,0.0,0.0,0.0,0.0,0.0,0.0,1,Lying,4
2019-01-17,11:48:17,-4.9799995,0.030000031,7.9399996,0.0,0.0,0.0,0.0,0.0,0.0,1,Lying,4
2019-01-17,11:48:17,-4.9799995,0.030000031,7.9399996,0.0,-0.01,0.01,0.0,-0.01,0.01,1,Lying,4
2019-01-17,11:48:17,-4.9799995,-0.01999998,7.96,0.0,-0.01,0.0,0.0,-0.01,0.0,1,Lying,4
2019-01-17,11:48:17,-4.9799995,-0.01999998,7.96,0.0,-0.01,0.0,0.0,-0.01,0.0,1,Lying,4
2019-01-17,11:48:17,-4.9599996,-0.03999999,7.96,0.0,-0.01,0.0,0.0,-0.01,0.0,1,Lying,4
2019-01-17,11:48:17,-4.9599996,-0.03999999,7.96,0.0,0.0,0.0,0.0,0.0,0.0,1,Lying,4
2019-01-17,11:48:17,-4.95,-0.03999999,7.96,0.0,0.0,0.0,0.0,0.0,0.0,1,Lying,4
2019-01-17,11:48:17,-4.95,-0.03999999,7.96,0.0,0.0,0.0,0.0,0.0,0.0,1,Lying,4
2019-01-17,11:48:17,-4.97,0.0,8.0,0.0,0.0,0.0,0.0,0.0,0.0,1,Lying,4
2019-01-17,11:48:17,-4.97,0.0,8.0,0.0,-0.01,0.0,0.0,-0.01,0.0,1,Lying,4
2019-01-17,11:48:17,-4.93,-0.01999998,7.96,0.0,-0.01,0.0,0.0,-0.01,0.0,1,Lying,4
2019-01-17,11:48:17,-4.93,-0.01999998,7.96,0.0,-0.01,0.0,0.0,-0.01,0.0,1,Lying,4
2019-01-17,11:48:17,-4.99,-0.060000002000000004,7.9199996,0.0,-0.01,0.0,0.0,-0.01,0.0,1,Lying,4
2019-01-17,11:48:18,-4.99,-0.060000002000000004,7.9199996,0.0,0.0,0.0,0.0,0.0,0.0,1,Lying,4
2019-01-17,11:48:18,-4.95,-0.03999999,7.9699993000000005,0.0,0.0,0.0,0.0,0.0,0.0,1,Lying,4
2019-01-17,11:48:18,-4.95,-0.03999999,7.9699993000000005,0.0,-0.01,0.0,0.0,-0.01,0.0,1,Lying,4
2019-01-17,11:48:18,-4.93,-0.01999998,7.9699993000000005,0.0,-0.01,0.0,0.0,-0.01,0.0,1,Lying,4
2019-01-17,11:48:18,-4.93,-0.01999998,7.9699993000000005,0.0,-0.01,0.0,0.0,-0.01,0.0,1,Lying,4
2019-01-17,11:48:18,-5.0299997,-0.03999999,7.8999996,0.0,-0.01,0.0,0.0,-0.01,0.0,1,Lying,4
2019-01-17,11:48:18,-5.0299997,-0.03999999,7.8999996,0.0,0.0,0.0,0.0,0.0,0.0,1,Lying,4
2019-01-17,11:48:18,-4.93,-0.00999999,8.009999,0.0,0.0,0.0,0.0,0.0,0.0,1,Lying,4
2019-01-17,11:48:18,-4.93,-0.00999999,8.009999,0.0,-0.01,0.0,0.0,-0.01,0.0,1,Lying,4
2019-01-17,11:48:18,-4.99,-0.06999999,7.93,0.0,-0.01,0.0,0.0,-0.01,0.0,1,Lying,4
2019-01-17,11:48:18,-4.99,-0.06999999,7.93,0.0,0.0,0.0,0.0,0.0,0.0,1,Lying,4
2019-01-17,11:48:18,-4.99,-0.03999999,7.9399996,0.0,0.0,0.0,0.0,0.0,0.0,1,Lying,4
2019-01-17,11:48:18,-4.99,-0.03999999,7.9399996,0.0,0.0,0.0,0.0,0.0,0.0,1,Lying,4
2019-01-17,11:48:18,-4.97,-0.030000001000000002,7.9399996,0.0,0.0,0.0,0.0,0.0,0.0,1,Lying,4
2019-01-17,11:48:18,-4.97,-0.030000001000000002,7.9399996,0.0,0.0,0.0,0.0,0.0,0.0,1,Lying,4
2019-01-17,11:48:18,-4.95,-0.030000001000000002,7.96,0.0,0.0,0.0,0.0,0.0,0.0,1,Lying,4
2019-01-17,11:48:18,-4.95,-0.030000001000000002,7.96,0.0,0.0,0.0,0.0,0.0,0.0,1,Lying,4
2019-01-17,11:48:18,-4.9799995,-0.01999998,7.93,0.0,0.0,0.0,0.0,0.0,0.0,1,Lying,4
2019-01-17,11:48:18,-4.9799995,-0.01999998,7.93,0.0,0.0,0.01,0.0,0.0,0.01,1,Lying,4
2019-01-17,11:48:18,-4.9999995,-0.01999998,7.9799995,0.0,0.0,0.01,0.0,0.0,0.01,1,Lying,4
2019-01-17,11:48:18,-4.9999995,-0.01999998,7.9799995,0.0,0.0,0.0,0.0,0.0,0.0,1,Lying,4
2019-01-17,11:48:18,-4.95,-0.060000002000000004,7.95,0.0,0.0,0.0,0.0,0.0,0.0,1,Lying,4
2019-01-17,11:48:18,-4.95,-0.060000002000000004,7.95,0.0,-0.01,0.0,0.0,-0.01,0.0,1,Lying,4
2019-01-17,11:48:18,-4.97,0.01999998,7.9699993000000005,0.0,-0.01,0.0,0.0,-0.01,0.0,1,Lying,4
2019-01-17,11:48:18,-4.97,0.01999998,7.9699993000000005,0.0,0.0,0.01,0.0,0.0,0.01,1,Lying,4
2019-01-17,11:48:18,-5.0399995,-0.030000001000000002,7.9399996,0.0,0.0,0.01,0.0,0.0,0.01,1,Lying,4
2019-01-17,11:48:18,-5.0399995,-0.030000001000000002,7.9399996,0.0,-0.01,0.0,0.0,-0.01,0.0,1,Lying,4
2019-01-17,11:48:18,-4.8999996,0.0,8.009999,0.0,-0.01,0.0,0.0,-0.01,0.0,1,Lying,4
2019-01-17,11:48:18,-4.8999996,0.0,8.009999,0.0,-0.02,0.01,0.0,-0.02,0.01,1,Lying,4
2019-01-17,11:48:18,-4.9599996,-0.03999999,7.93,0.0,0.0,0.0,0.0,0.0,0.0,1,Lying,4
2019-01-17,11:48:18,-4.9599996,-0.03999999,7.93,0.0,0.0,0.0,0.0,0.0,0.0,1,Lying,4
2019-01-17,11:48:18,-4.95,-0.00999999,7.96,0.0,0.0,0.0,0.0,0.0,0.0,1,Lying,4
2019-01-17,11:48:18,-4.95,-0.00999999,7.96,0.0,-0.01,0.01,0.0,-0.01,0.01,1,Lying,4
2019-01-17,11:48:18,-4.9599996,-0.049999982000000005,8.0,0.0,-0.01,0.01,0.0,-0.01,0.01,1,Lying,4
2019-01-17,11:48:18,-4.9599996,-0.049999982000000005,8.0,0.0,-0.01,0.0,0.0,-0.01,0.0,1,Lying,4
2019-01-17,11:48:18,-4.97,0.00999999,7.95,0.0,-0.01,0.0,0.0,-0.01,0.0,1,Lying,4
2019-01-17,11:48:18,-4.97,0.00999999,7.95,0.0,0.0,0.01,0.0,0.0,0.01,1,Lying,4
2019-01-17,11:48:18,-4.95,-0.03999999,7.93,0.0,0.0,0.01,0.0,0.0,0.01,1,Lying,4
2019-01-17,11:48:18,-4.95,-0.03999999,7.93,0.0,-0.01,0.01,0.0,-0.01,0.01,1,Lying,4
2019-01-17,11:48:18,-4.95,-0.03999999,7.99,0.0,-0.01,0.01,0.0,-0.01,0.01,1,Lying,4
2019-01-17,11:48:18,-4.95,-0.03999999,7.99,0.0,-0.01,0.0,0.0,-0.01,0.0,1,Lying,4
2019-01-17,11:48:18,-4.93,-0.00999999,7.9799995,0.0,-0.01,0.0,0.0,-0.01,0.0,1,Lying,4
2019-01-17,11:48:18,-4.93,-0.00999999,7.9799995,0.0,-0.01,0.01,0.0,-0.01,0.01,1,Lying,4
2019-01-17,11:48:18,-4.97,-0.01999998,7.89,0.0,-0.01,0.01,0.0,-0.01,0.01,1,Lying,4
2019-01-17,11:48:18,-4.97,-0.01999998,7.89,0.0,0.0,0.0,0.0,0.0,0.0,1,Lying,4
2019-01-17,11:48:18,-4.8999996,0.0,7.99,0.0,0.0,0.0,0.0,0.0,0.0,1,Lying,4
2019-01-17,11:48:19,-4.8999996,0.0,7.99,0.0,-0.02,0.01,0.0,-0.02,0.01,1,Lying,4
2019-01-17,11:48:19,-4.9399996,-0.030000001000000002,8.019999499999999,0.0,-0.02,0.01,0.0,-0.02,0.01,1,Lying,4
2019-01-17,11:48:19,-4.9399996,-0.030000001000000002,8.019999499999999,0.0,0.0,0.0,0.0,0.0,0.0,1,Lying,4
2019-01-17,11:48:19,-4.97,-0.00999999,7.91,0.0,0.0,0.0,0.0,0.0,0.0,1,Lying,4
2019-01-17,11:48:19,-4.97,-0.00999999,7.91,0.0,0.0,0.0,0.0,0.0,0.0,1,Lying,4
2019-01-17,11:48:19,-4.9399996,-0.03999999,8.0,0.0,0.0,0.0,0.0,0.0,0.0,1,Lying,4
2019-01-17,11:48:19,-4.9399996,-0.03999999,8.0,0.0,0.0,0.0,0.0,0.0,0.0,1,Lying,4
2019-01-17,11:48:19,-4.9199996,-0.01999998,7.96,0.0,0.0,0.0,0.0,0.0,0.0,1,Lying,4
2019-01-17,11:48:19,-4.9199996,-0.01999998,7.96,0.0,0.0,0.0,0.0,0.0,0.0,1,Lying,4
2019-01-17,11:48:19,-4.91,-0.01999998,7.95,0.0,0.0,0.0,0.0,0.0,0.0,1,Lying,4
2019-01-17,11:48:19,-4.91,-0.01999998,7.95,0.0,0.0,0.0,0.0,0.0,0.0,1,Lying,4
2019-01-17,11:48:19,-4.9599996,-0.030000001000000002,7.9699993000000005,0.0,0.0,0.0,0.0,0.0,0.0,1,Lying,4
2019-01-17,11:48:19,-4.9599996,-0.030000001000000002,7.9699993000000005,0.0,0.0,0.0,0.0,0.0,0.0,1,Lying,4
2019-01-17,11:48:19,-4.9599996,-0.00999999,7.99,0.0,0.0,0.0,0.0,0.0,0.0,1,Lying,4
2019-01-17,11:48:19,-4.9599996,-0.00999999,7.99,0.0,0.0,0.0,0.0,0.0,0.0,1,Lying,4
2019-01-17,11:48:19,-4.93,0.00999999,7.9199996,0.0,0.0,0.0,0.0,0.0,0.0,1,Lying,4
2019-01-17,11:48:19,-4.93,0.00999999,7.9199996,0.0,0.0,0.0,0.0,0.0,0.0,1,Lying,4
2019-01-17,11:48:19,-4.99,-0.060000002000000004,7.95,0.0,0.0,0.0,0.0,0.0,0.0,1,Lying,4
2019-01-17,11:48:19,-4.99,-0.060000002000000004,7.95,0.0,0.0,0.0,0.0,0.0,0.0,1,Lying,4
2019-01-17,11:48:19,-4.93,-0.00999999,7.9799995,0.0,0.0,0.0,0.0,0.0,0.0,1,Lying,4
2019-01-17,11:48:19,-4.93,-0.00999999,7.9799995,0.0,0.0,0.01,0.0,0.0,0.01,1,Lying,4
2019-01-17,11:48:19,-4.97,-0.060000002000000004,7.96,0.0,0.0,0.01,0.0,0.0,0.01,1,Lying,4
2019-01-17,11:48:19,-4.97,-0.060000002000000004,7.96,0.0,0.0,0.0,0.0,0.0,0.0,1,Lying,4
2019-01-17,11:48:19,-4.9599996,-0.049999982000000005,7.96,0.0,0.0,0.0,0.0,0.0,0.0,1,Lying,4
2019-01-17,11:48:19,-4.9599996,-0.049999982000000005,7.96,0.0,0.0,0.0,0.0,0.0,0.0,1,Lying,4
2019-01-17,11:48:19,-4.91,0.01999998,7.96,0.0,0.0,0.0,0.0,0.0,0.0,1,Lying,4
2019-01-17,11:48:19,-4.91,0.01999998,7.96,0.0,0.0,0.0,0.0,0.0,0.0,1,Lying,4
2019-01-17,11:48:19,-4.95,-0.049999982000000005,7.95,0.0,0.0,0.0,0.0,0.0,0.0,1,Lying,4
2019-01-17,11:48:19,-4.95,-0.049999982000000005,7.95,0.0,0.0,0.0,0.0,0.0,0.0,1,Lying,4
2019-01-17,11:48:19,-4.9999995,-0.030000001000000002,7.99,0.0,0.0,0.0,0.0,0.0,0.0,1,Lying,4
2019-01-17,11:48:19,-4.9999995,-0.030000001000000002,7.99,0.0,0.0,0.0,0.0,0.0,0.0,1,Lying,4
2019-01-17,11:48:19,-4.9999995,-0.030000001000000002,7.9699993000000005,0.0,0.0,0.0,0.0,0.0,0.0,1,Lying,4
2019-01-17,11:48:19,-4.9999995,-0.030000001000000002,7.9699993000000005,0.0,0.0,0.0,0.0,0.0,0.0,1,Lying,4
2019-01-17,11:48:19,-4.9199996,-0.03999999,7.9699993000000005,0.0,0.0,0.0,0.0,0.0,0.0,1,Lying,4
2019-01-17,11:48:19,-4.9199996,-0.03999999,7.9699993000000005,0.0,-0.02,0.0,0.0,-0.02,0.0,1,Lying,4
2019-01-17,11:48:19,-4.9199996,0.00999999,7.9799995,0.0,-0.02,0.0,0.0,-0.02,0.0,1,Lying,4
2019-01-17,11:48:19,-4.9199996,0.00999999,7.9799995,0.0,0.0,0.0,0.0,0.0,0.0,1,Lying,4
2019-01-17,11:48:19,-4.97,-0.049999982000000005,7.93,0.0,0.0,0.0,0.0,0.0,0.0,1,Lying,4
2019-01-17,11:48:19,-4.97,-0.049999982000000005,7.93,0.0,0.0,0.0,0.0,0.0,0.0,1,Lying,4
2019-01-17,11:48:19,-4.9399996,-0.00999999,7.9699993000000005,0.0,0.0,0.0,0.0,0.0,0.0,1,Lying,4
2019-01-17,11:48:19,-4.9399996,-0.00999999,7.9699993000000005,0.0,-0.01,0.0,0.0,-0.01,0.0,1,Lying,4
2019-01-17,11:48:19,-4.8999996,-0.030000001000000002,7.9699993000000005,0.0,-0.01,0.0,0.0,-0.01,0.0,1,Lying,4
2019-01-17,11:48:19,-4.8999996,-0.030000001000000002,7.9699993000000005,0.0,-0.01,0.0,0.0,-0.01,0.0,1,Lying,4
2019-01-17,11:48:19,-4.9799995,-0.030000001000000002,7.8999996,0.0,-0.01,0.0,0.0,-0.01,0.0,1,Lying,4
2019-01-17,11:48:19,-4.9799995,-0.030000001000000002,7.8999996,0.0,0.0,0.0,0.0,0.0,0.0,1,Lying,4
2019-01-17,11:48:19,-4.9199996,-0.030000001000000002,7.93,0.0,0.0,0.0,0.0,0.0,0.0,1,Lying,4
2019-01-17,11:48:19,-4.9199996,-0.030000001000000002,7.93,0.0,-0.01,0.01,0.0,-0.01,0.01,1,Lying,4
2019-01-17,11:48:20,-4.9599996,-0.03999999,7.96,0.0,-0.01,0.01,0.0,-0.01,0.01,1,Lying,4
2019-01-17,11:48:20,-4.9599996,-0.03999999,7.96,0.0,0.0,0.0,0.0,0.0,0.0,1,Lying,4
2019-01-17,11:48:20,-4.93,-0.03999999,7.9799995,0.0,0.0,0.0,0.0,0.0,0.0,1,Lying,4
2019-01-17,11:48:20,-4.93,-0.03999999,7.9799995,0.0,0.0,0.0,0.0,0.0,0.0,1,Lying,4
2019-01-17,11:48:20,-4.9199996,0.00999999,7.93,0.0,0.0,0.0,0.0,0.0,0.0,1,Lying,4
2019-01-17,11:48:20,-4.9199996,0.00999999,7.93,0.0,0.0,0.0,0.0,0.0,0.0,1,Lying,4
2019-01-17,11:48:20,-4.9199996,-0.060000002000000004,7.9699993000000005,0.0,0.0,0.0,0.0,0.0,0.0,1,Lying,4
2019-01-17,11:48:20,-4.9199996,-0.060000002000000004,7.9699993000000005,0.0,0.0,0.0,0.0,0.0,0.0,1,Lying,4
2019-01-17,11:48:20,-4.93,-0.03999999,8.0,0.0,0.0,0.0,0.0,0.0,0.0,1,Lying,4
2019-01-17,11:48:20,-4.93,-0.03999999,8.0,0.0,0.0,0.0,0.0,0.0,0.0,1,Lying,4
2019-01-17,11:48:20,-4.99,-0.03999999,7.96,0.0,0.0,0.0,0.0,0.0,0.0,1,Lying,4
2019-01-17,11:48:20,-4.99,-0.03999999,7.96,0.0,-0.01,0.01,0.0,-0.01,0.01,1,Lying,4
2019-01-17,11:48:20,-4.8599997,-0.049999982000000005,8.009999,0.0,-0.01,0.01,0.0,-0.01,0.01,1,Lying,4
2019-01-17,11:48:20,-4.8599997,-0.049999982000000005,8.009999,0.0,-0.01,0.0,0.0,-0.01,0.0,1,Lying,4
2019-01-17,11:48:20,-4.9599996,-0.049999982000000005,7.99,0.0,-0.01,0.0,0.0,-0.01,0.0,1,Lying,4
2019-01-17,11:48:20,-4.9599996,-0.049999982000000005,7.99,0.0,0.0,0.0,0.0,0.0,0.0,1,Lying,4
2019-01-17,11:48:20,-4.8999996,-0.01999998,7.8999996,0.0,0.0,0.0,0.0,0.0,0.0,1,Lying,4
2019-01-17,11:48:20,-4.8999996,-0.01999998,7.8999996,0.0,0.0,0.0,0.0,0.0,0.0,1,Lying,4
2019-01-17,11:48:20,-4.93,-0.030000001000000002,7.95,0.0,0.0,0.0,0.0,0.0,0.0,1,Lying,4
2019-01-17,11:48:20,-4.93,-0.030000001000000002,7.95,0.0,0.0,0.0,0.0,0.0,0.0,1,Lying,4
2019-01-17,11:48:20,-4.9399996,-0.07999998,7.91,0.0,0.0,0.0,0.0,0.0,0.0,1,Lying,4
2019-01-17,11:48:20,-4.9399996,-0.07999998,7.91,0.0,0.0,0.0,0.0,0.0,0.0,1,Lying,4
2019-01-17,11:48:20,-4.9599996,-0.06999999,7.96,0.0,0.0,0.0,0.0,0.0,0.0,1,Lying,4
2019-01-17,11:48:20,-4.9599996,-0.06999999,7.96,0.0,0.0,0.0,0.0,0.0,0.0,1,Lying,4
2019-01-17,11:48:20,-4.8999996,-0.030000001000000002,7.9699993000000005,0.0,0.0,0.0,0.0,0.0,0.0,1,Lying,4
2019-01-17,11:48:20,-4.8999996,-0.030000001000000002,7.9699993000000005,0.0,-0.01,0.01,0.0,-0.01,0.01,1,Lying,4
2019-01-17,11:48:20,-4.8999996,-0.030000001000000002,7.95,0.0,-0.01,0.01,0.0,-0.01,0.01,1,Lying,4
2019-01-17,11:48:20,-4.8999996,-0.030000001000000002,7.95,0.0,0.0,0.0,0.0,0.0,0.0,1,Lying,4
2019-01-17,11:48:20,-4.9599996,-0.03999999,7.8999996,0.0,0.0,0.0,0.0,0.0,0.0,1,Lying,4
2019-01-17,11:48:20,-4.9599996,-0.03999999,7.8999996,0.0,0.0,0.0,0.0,0.0,0.0,1,Lying,4
2019-01-17,11:48:20,-4.9399996,-0.030000001000000002,8.009999,0.0,0.0,0.0,0.0,0.0,0.0,1,Lying,4
2019-01-17,11:48:20,-4.9399996,-0.030000001000000002,8.009999,0.0,-0.01,0.0,0.0,-0.01,0.0,1,Lying,4
2019-01-17,11:48:20,-4.93,0.0,7.9399996,0.0,-0.01,0.0,0.0,-0.01,0.0,1,Lying,4
2019-01-17,11:48:20,-4.93,0.0,7.9399996,0.0,0.0,0.0,0.0,0.0,0.0,1,Lying,4
2019-01-17,11:48:20,-4.95,-0.060000002000000004,7.9399996,0.0,0.0,0.0,0.0,0.0,0.0,1,Lying,4
2019-01-17,11:48:20,-4.95,-0.060000002000000004,7.9399996,0.0,0.0,0.0,0.0,0.0,0.0,1,Lying,4
2019-01-17,11:48:20,-4.8999996,-0.060000002000000004,7.93,0.0,0.0,0.0,0.0,0.0,0.0,1,Lying,4
2019-01-17,11:48:20,-4.8999996,-0.060000002000000004,7.93,0.0,-0.01,0.0,0.0,-0.01,0.0,1,Lying,4
2019-01-17,11:48:20,-4.95,-0.049999982000000005,7.8999996,0.0,-0.01,0.0,0.0,-0.01,0.0,1,Lying,4
2019-01-17,11:48:20,-4.95,-0.049999982000000005,7.8999996,0.0,0.0,0.0,0.0,0.0,0.0,1,Lying,4
2019-01-17,11:48:20,-4.91,-0.060000002000000004,7.8799996,0.0,0.0,0.0,0.0,0.0,0.0,1,Lying,4
2019-01-17,11:48:20,-4.91,-0.060000002000000004,7.8799996,0.0,0.0,0.0,0.0,0.0,0.0,1,Lying,4
2019-01-17,11:48:20,-4.9399996,-0.03999999,7.95,0.0,0.0,0.0,0.0,0.0,0.0,1,Lying,4
2019-01-17,11:48:20,-4.9399996,-0.03999999,7.95,0.0,0.0,0.0,0.0,0.0,0.0,1,Lying,4
2019-01-17,11:48:20,-4.9399996,-0.049999982000000005,7.9399996,0.0,0.0,0.0,0.0,0.0,0.0,1,Lying,4
2019-01-17,11:48:20,-4.9399996,-0.049999982000000005,7.9399996,0.0,0.0,0.0,0.0,0.0,0.0,1,Lying,4
2019-01-17,11:48:21,-4.9799995,-0.09,7.8799996,0.0,0.0,0.0,0.0,0.0,0.0,1,Lying,4
2019-01-17,11:48:21,-4.9799995,-0.09,7.8799996,0.0,0.0,0.0,0.0,0.0,0.0,1,Lying,4
2019-01-17,11:48:21,-4.8999996,-0.00999999,7.96,0.0,0.0,0.0,0.0,0.0,0.0,1,Lying,4
2019-01-17,11:48:21,-4.8999996,-0.00999999,7.96,0.0,-0.02,0.01,0.0,-0.02,0.01,1,Lying,4
2019-01-17,11:48:21,-4.95,-0.00999999,7.95,0.0,-0.02,0.01,0.0,-0.02,0.01,1,Lying,4
2019-01-17,11:48:21,-4.95,-0.00999999,7.95,0.0,0.0,0.0,0.0,0.0,0.0,1,Lying,4
2019-01-17,11:48:21,-4.95,0.00999999,7.93,0.0,0.0,0.0,0.0,0.0,0.0,1,Lying,4
2019-01-17,11:48:21,-4.95,0.00999999,7.93,0.0,0.0,0.0,0.0,0.0,0.0,1,Lying,4
2019-01-17,11:48:21,-4.8999996,-0.049999982000000005,7.9799995,0.0,0.0,0.0,0.0,0.0,0.0,1,Lying,4
2019-01-17,11:48:21,-4.8999996,-0.049999982000000005,7.9799995,0.0,-0.01,0.0,0.0,-0.01,0.0,1,Lying,4
2019-01-17,11:48:21,-4.95,-0.03999999,7.9799995,0.0,-0.01,0.0,0.0,-0.01,0.0,1,Lying,4
2019-01-17,11:48:21,-4.95,-0.03999999,7.9799995,0.0,0.0,0.01,0.0,0.0,0.01,1,Lying,4
2019-01-17,11:48:21,-4.91,0.0,7.91,0.0,0.0,0.01,0.0,0.0,0.01,1,Lying,4
2019-01-17,11:48:21,-4.91,0.0,7.91,0.0,0.0,0.01,0.0,0.0,0.01,1,Lying,4
2019-01-17,11:48:21,-4.9399996,-0.03999999,7.96,0.0,0.0,0.01,0.0,0.0,0.01,1,Lying,4
2019-01-17,11:48:21,-4.9399996,-0.03999999,7.96,0.0,-0.01,0.0,0.0,-0.01,0.0,1,Lying,4
2019-01-17,11:48:21,-4.93,-0.030000001000000002,7.9799995,0.0,-0.01,0.0,0.0,-0.01,0.0,1,Lying,4
2019-01-17,11:48:21,-4.93,-0.030000001000000002,7.9799995,0.0,-0.01,0.01,0.0,-0.01,0.01,1,Lying,4
2019-01-17,11:48:21,-4.9399996,-0.01999998,7.9699993000000005,0.0,-0.01,0.01,0.0,-0.01,0.01,1,Lying,4
2019-01-17,11:48:21,-4.9399996,-0.01999998,7.9699993000000005,0.0,0.0,0.0,0.0,0.0,0.0,1,Lying,4
2019-01-17,11:48:21,-4.9199996,-0.03999999,7.9199996,0.0,0.0,0.0,0.0,0.0,0.0,1,Lying,4
2019-01-17,11:48:21,-4.9199996,-0.03999999,7.9199996,0.0,-0.01,0.0,0.0,-0.01,0.0,1,Lying,4
2019-01-17,11:48:21,-4.93,-0.01999998,7.96,0.0,-0.01,0.0,0.0,-0.01,0.0,1,Lying,4
2019-01-17,11:48:21,-4.93,-0.01999998,7.96,0.0,0.0,0.0,0.0,0.0,0.0,1,Lying,4
2019-01-17,11:48:21,-4.8999996,-0.060000002000000004,7.9799995,0.0,0.0,0.0,0.0,0.0,0.0,1,Lying,4
2019-01-17,11:48:21,-4.8999996,-0.060000002000000004,7.9799995,0.0,-0.01,0.01,0.0,-0.01,0.01,1,Lying,4
2019-01-17,11:48:21,-4.9999995,-0.030000001000000002,7.9799995,0.0,-0.01,0.01,0.0,-0.01,0.01,1,Lying,4
2019-01-17,11:48:21,-4.9999995,-0.030000001000000002,7.9799995,0.0,-0.01,0.01,0.0,-0.01,0.01,1,Lying,4
2019-01-17,11:48:21,-4.91,-0.03999999,7.9399996,0.0,-0.01,0.01,0.0,-0.01,0.01,1,Lying,4
2019-01-17,11:48:21,-4.91,-0.03999999,7.9399996,0.0,0.0,0.0,0.0,0.0,0.0,1,Lying,4
2019-01-17,11:48:21,-4.93,-0.03999999,7.9199996,0.0,0.0,0.0,0.0,0.0,0.0,1,Lying,4
2019-01-17,11:48:21,-4.93,-0.03999999,7.9199996,0.0,0.0,0.0,0.0,0.0,0.0,1,Lying,4
2019-01-17,11:48:21,-4.91,-0.01999998,7.9199996,0.0,0.0,0.0,0.0,0.0,0.0,1,Lying,4
2019-01-17,11:48:21,-4.91,-0.01999998,7.9199996,0.0,-0.01,0.01,0.0,-0.01,0.01,1,Lying,4
2019-01-17,11:48:21,-4.9599996,0.0,7.9699993000000005,0.0,-0.01,0.01,0.0,-0.01,0.01,1,Lying,4
2019-01-17,11:48:21,-4.9599996,0.0,7.9699993000000005,0.0,-0.02,0.0,0.0,-0.02,0.0,1,Lying,4
2019-01-17,11:48:21,-4.9199996,-0.03999999,7.9699993000000005,0.0,-0.02,0.0,0.0,-0.02,0.0,1,Lying,4
2019-01-17,11:48:21,-4.9199996,-0.03999999,7.9699993000000005,0.0,-0.01,0.01,0.0,-0.01,0.01,1,Lying,4
2019-01-17,11:48:21,-4.9399996,-0.01999998,7.95,0.0,-0.01,0.01,0.0,-0.01,0.01,1,Lying,4
2019-01-17,11:48:21,-4.9399996,-0.01999998,7.95,0.0,0.0,0.0,0.0,0.0,0.0,1,Lying,4
2019-01-17,11:48:21,-4.8599997,-0.030000001000000002,8.0,0.0,0.0,0.0,0.0,0.0,0.0,1,Lying,4
2019-01-17,11:48:21,-4.8599997,-0.030000001000000002,8.0,0.0,-0.01,0.01,0.0,-0.01,0.01,1,Lying,4
2019-01-17,11:48:21,-4.89,-0.03999999,7.9699993000000005,0.0,-0.01,0.01,0.0,-0.01,0.01,1,Lying,4
2019-01-17,11:48:22,-4.89,-0.03999999,7.9699993000000005,0.0,0.0,0.0,0.0,0.0,0.0,1,Lying,4
2019-01-17,11:48:22,-4.91,-0.00999999,8.0,0.0,0.0,0.0,0.0,0.0,0.0,1,Lying,4
2019-01-17,11:48:22,-4.91,-0.00999999,8.0,0.0,0.0,0.0,0.0,0.0,0.0,1,Lying,4
2019-01-17,11:48:22,-4.89,-0.01999998,8.0,0.0,0.0,0.0,0.0,0.0,0.0,1,Lying,4
2019-01-17,11:48:22,-4.89,-0.01999998,8.0,0.0,0.0,0.0,0.0,0.0,0.0,1,Lying,4
2019-01-17,11:48:22,-4.9799995,-0.030000001000000002,7.96,0.0,0.0,0.0,0.0,0.0,0.0,1,Lying,4
2019-01-17,11:48:22,-4.9799995,-0.030000001000000002,7.96,0.0,0.0,0.0,0.0,0.0,0.0,1,Lying,4
2019-01-17,11:48:22,-4.8599997,-0.060000002000000004,8.0,0.0,0.0,0.0,0.0,0.0,0.0,1,Lying,4
2019-01-17,11:48:22,-4.8599997,-0.060000002000000004,8.0,0.0,-0.01,0.0,0.0,-0.01,0.0,1,Lying,4
2019-01-17,11:48:22,-4.97,-0.00999999,7.9199996,0.0,-0.01,0.0,0.0,-0.01,0.0,1,Lying,4
2019-01-17,11:48:22,-4.97,-0.00999999,7.9199996,0.01,0.01,0.0,0.01,0.01,0.0,1,Lying,4
2019-01-17,11:48:22,-4.9199996,-0.030000001000000002,7.8999996,0.01,0.01,0.0,0.01,0.01,0.0,1,Lying,4
2019-01-17,11:48:22,-4.9199996,-0.030000001000000002,7.8999996,0.0,0.0,0.0,0.0,0.0,0.0,1,Lying,4
2019-01-17,11:48:22,-4.8999996,-0.030000001000000002,7.99,0.0,0.0,0.0,0.0,0.0,0.0,1,Lying,4
2019-01-17,11:48:22,-4.8999996,-0.030000001000000002,7.99,0.0,-0.01,0.0,0.0,-0.01,0.0,1,Lying,4
2019-01-17,11:48:22,-4.89,-0.00999999,7.9699993000000005,0.0,-0.01,0.0,0.0,-0.01,0.0,1,Lying,4
2019-01-17,11:48:22,-4.89,-0.00999999,7.9699993000000005,0.0,0.0,0.0,0.0,0.0,0.0,1,Lying,4
2019-01-17,11:48:22,-4.93,-0.049999982000000005,7.9799995,0.0,0.0,0.0,0.0,0.0,0.0,1,Lying,4
2019-01-17,11:48:22,-4.93,-0.049999982000000005,7.9799995,0.0,0.01,0.0,0.0,0.01,0.0,1,Lying,4
2019-01-17,11:48:22,-4.95,-0.00999999,7.9699993000000005,0.0,0.01,0.0,0.0,0.01,0.0,1,Lying,4
2019-01-17,11:48:22,-4.95,-0.00999999,7.9699993000000005,0.0,0.0,0.0,0.0,0.0,0.0,1,Lying,4
2019-01-17,11:48:22,-4.95,0.0,7.9699993000000005,0.0,0.0,0.0,0.0,0.0,0.0,1,Lying,4
2019-01-17,11:48:22,-4.95,0.0,7.9699993000000005,0.0,0.0,0.01,0.0,0.0,0.01,1,Lying,4
2019-01-17,11:48:22,-4.9599996,-0.01999998,7.99,0.0,0.0,0.01,0.0,0.0,0.01,1,Lying,4
2019-01-17,11:48:22,-4.9599996,-0.01999998,7.99,0.0,0.0,0.0,0.0,0.0,0.0,1,Lying,4
2019-01-17,11:48:22,-4.9399996,0.0,8.009999,0.0,0.0,0.0,0.0,0.0,0.0,1,Lying,4
2019-01-17,11:48:22,-4.9399996,0.0,8.009999,0.0,0.0,0.0,0.0,0.0,0.0,1,Lying,4
2019-01-17,11:48:22,-4.8999996,-0.03999999,7.99,0.0,0.0,0.0,0.0,0.0,0.0,1,Lying,4
2019-01-17,11:48:22,-4.8999996,-0.03999999,7.99,0.0,-0.02,0.0,0.0,-0.02,0.0,1,Lying,4
2019-01-17,11:48:22,-4.9199996,0.0,8.009999,0.0,-0.02,0.0,0.0,-0.02,0.0,1,Lying,4
2019-01-17,11:48:22,-4.9199996,0.0,8.009999,0.0,-0.02,0.01,0.0,-0.02,0.01,1,Lying,4
2019-01-17,11:48:22,-4.9999995,0.01999998,7.8199997,0.0,-0.02,0.01,0.0,-0.02,0.01,1,Lying,4
2019-01-17,11:48:22,-4.9999995,0.01999998,7.8199997,0.0,0.0,0.0,0.0,0.0,0.0,1,Lying,4
2019-01-17,11:48:22,-4.8199997,-0.03999999,8.099999,0.0,0.0,0.0,0.0,0.0,0.0,1,Lying,4
2019-01-17,11:48:22,-4.8199997,-0.03999999,8.099999,0.0,-0.049999997000000004,0.0,0.0,-0.049999997000000004,0.0,1,Lying,4
2019-01-17,11:48:22,-4.9999995,-0.01999998,7.91,0.0,-0.049999997000000004,0.0,0.0,-0.049999997000000004,0.0,1,Lying,4
2019-01-17,11:48:22,-4.9999995,-0.01999998,7.91,0.01,0.01,0.0,0.01,0.01,0.0,1,Lying,4
2019-01-17,11:48:22,-4.89,-0.030000001000000002,7.9399996,0.01,0.01,0.0,0.01,0.01,0.0,1,Lying,4
2019-01-17,11:48:22,-4.89,-0.030000001000000002,7.9399996,0.0,0.0,0.0,0.0,0.0,0.0,1,Lying,4
2019-01-17,11:48:22,-4.9599996,-0.03999999,7.9399996,0.0,0.0,0.0,0.0,0.0,0.0,1,Lying,4
2019-01-17,11:48:22,-4.9599996,-0.03999999,7.9399996,0.0,0.0,0.0,0.0,0.0,0.0,1,Lying,4
2019-01-17,11:48:22,-4.9399996,-0.030000001000000002,7.9399996,0.0,0.0,0.0,0.0,0.0,0.0,1,Lying,4
2019-01-17,11:48:22,-4.9399996,-0.030000001000000002,7.9399996,0.0,0.0,0.0,0.0,0.0,0.0,1,Lying,4
2019-01-17,11:48:22,-4.87,-0.030000001000000002,8.0,0.0,0.0,0.0,0.0,0.0,0.0,1,Lying,4
2019-01-17,11:48:22,-4.87,-0.030000001000000002,8.0,0.0,-0.01,0.0,0.0,-0.01,0.0,1,Lying,4
2019-01-17,11:48:22,-4.95,-0.03999999,7.95,0.0,-0.01,0.0,0.0,-0.01,0.0,1,Lying,4
2019-01-17,11:48:22,-4.95,-0.03999999,7.95,0.0,0.0,0.0,0.0,0.0,0.0,1,Lying,4
2019-01-17,11:48:23,-4.8999996,0.0,7.96,0.0,0.0,0.0,0.0,0.0,0.0,1,Lying,4
2019-01-17,11:48:23,-4.8999996,0.0,7.96,0.0,-0.01,0.0,0.0,-0.01,0.0,1,Lying,4
2019-01-17,11:48:23,-4.91,-0.030000001000000002,7.96,0.0,-0.01,0.0,0.0,-0.01,0.0,1,Lying,4
2019-01-17,11:48:23,-4.91,-0.030000001000000002,7.96,0.0,0.0,0.0,0.0,0.0,0.0,1,Lying,4
2019-01-17,11:48:23,-4.93,-0.06999999,8.0,0.0,0.0,0.0,0.0,0.0,0.0,1,Lying,4
2019-01-17,11:48:23,-4.93,-0.06999999,8.0,0.0,0.0,0.0,0.0,0.0,0.0,1,Lying,4
2019-01-17,11:48:23,-4.93,0.0,7.91,0.0,0.0,0.0,0.0,0.0,0.0,1,Lying,4
2019-01-17,11:48:23,-4.93,0.0,7.91,0.0,0.0,0.0,0.0,0.0,0.0,1,Lying,4
2019-01-17,11:48:23,-4.89,-0.03999999,7.9799995,0.0,0.0,0.0,0.0,0.0,0.0,1,Lying,4
2019-01-17,11:48:23,-4.89,-0.03999999,7.9799995,0.0,0.0,0.0,0.0,0.0,0.0,1,Lying,4
2019-01-17,11:48:23,-4.93,-0.03999999,7.95,0.0,0.0,0.0,0.0,0.0,0.0,1,Lying,4
2019-01-17,11:48:23,-4.93,-0.03999999,7.95,0.0,0.0,0.0,0.0,0.0,0.0,1,Lying,4
2019-01-17,11:48:23,-4.9199996,-0.01999998,7.99,0.0,0.0,0.0,0.0,0.0,0.0,1,Lying,4
2019-01-17,11:48:23,-4.9199996,-0.01999998,7.99,0.0,-0.01,0.0,0.0,-0.01,0.0,1,Lying,4
2019-01-17,11:48:23,-4.87,-0.060000002000000004,8.009999,0.0,-0.01,0.0,0.0,-0.01,0.0,1,Lying,4
2019-01-17,11:48:23,-4.87,-0.060000002000000004,8.009999,0.0,-0.02,0.0,0.0,-0.02,0.0,1,Lying,4
2019-01-17,11:48:23,-4.9399996,0.01999998,7.9699993000000005,0.0,-0.02,0.0,0.0,-0.02,0.0,1,Lying,4
2019-01-17,11:48:23,-4.9399996,0.01999998,7.9699993000000005,0.0,0.01,0.01,0.0,0.01,0.01,1,Lying,4
2019-01-17,11:48:23,-5.0699997,-0.07999998,7.8999996,0.01,0.02,0.0,0.01,0.02,0.0,1,Lying,4
2019-01-17,11:48:23,-5.0699997,-0.07999998,7.8999996,0.01,0.02,0.0,0.01,0.02,0.0,1,Lying,4
2019-01-17,11:48:23,-4.7799997,0.00999999,8.08,0.01,0.02,0.0,0.01,0.02,0.0,1,Lying,4
2019-01-17,11:48:23,-4.7799997,0.00999999,8.08,0.0,-0.049999997000000004,0.01,0.0,-0.049999997000000004,0.01,1,Lying,4
2019-01-17,11:48:23,-4.89,-0.049999982000000005,7.9399996,0.0,-0.049999997000000004,0.01,0.0,-0.049999997000000004,0.01,1,Lying,4
2019-01-17,11:48:23,-4.89,-0.049999982000000005,7.9399996,0.0,0.01,0.0,0.0,0.01,0.0,1,Lying,4
2019-01-17,11:48:23,-4.9399996,0.00999999,7.9199996,0.0,0.01,0.0,0.0,0.01,0.0,1,Lying,4
2019-01-17,11:48:23,-4.9399996,0.00999999,7.9199996,0.0,0.0,0.01,0.0,0.0,0.01,1,Lying,4
2019-01-17,11:48:23,-4.89,-0.00999999,8.009999,0.0,0.0,0.01,0.0,0.0,0.01,1,Lying,4
2019-01-17,11:48:23,-4.89,-0.00999999,8.009999,0.0,-0.01,0.0,0.0,-0.01,0.0,1,Lying,4
2019-01-17,11:48:23,-4.8799996,-0.060000002000000004,7.9799995,0.0,-0.01,0.0,0.0,-0.01,0.0,1,Lying,4
2019-01-17,11:48:23,-4.8799996,-0.060000002000000004,7.9799995,0.0,0.0,0.0,0.0,0.0,0.0,1,Lying,4
2019-01-17,11:48:23,-4.9199996,0.0,7.9399996,0.0,0.0,0.0,0.0,0.0,0.0,1,Lying,4
2019-01-17,11:48:23,-4.9199996,0.0,7.9399996,0.0,0.0,0.01,0.0,0.0,0.01,1,Lying,4
2019-01-17,11:48:23,-4.8599997,-0.049999982000000005,7.9799995,0.0,0.0,0.01,0.0,0.0,0.01,1,Lying,4
2019-01-17,11:48:23,-4.8599997,-0.049999982000000005,7.9799995,0.0,-0.02,0.0,0.0,-0.02,0.0,1,Lying,4
2019-01-17,11:48:23,-4.8799996,-0.049999982000000005,8.0,0.0,-0.02,0.0,0.0,-0.02,0.0,1,Lying,4
2019-01-17,11:48:23,-4.8799996,-0.049999982000000005,8.0,0.0,-0.01,0.0,0.0,-0.01,0.0,1,Lying,4
2019-01-17,11:48:23,-4.89,-0.03999999,7.99,0.0,0.0,0.0,0.0,0.0,0.0,1,Lying,4
2019-01-17,11:48:23,-4.89,-0.03999999,7.99,0.0,0.0,0.0,0.0,0.0,0.0,1,Lying,4
2019-01-17,11:48:23,-4.9399996,-0.01999998,7.91,0.0,0.0,0.0,0.0,0.0,0.0,1,Lying,4
2019-01-17,11:48:23,-4.9399996,-0.01999998,7.91,0.0,0.0,0.0,0.0,0.0,0.0,1,Lying,4
2019-01-17,11:48:23,-4.91,-0.03999999,7.9699993000000005,0.0,0.0,0.0,0.0,0.0,0.0,1,Lying,4
2019-01-17,11:48:23,-4.91,-0.03999999,7.9699993000000005,0.0,-0.01,0.01,0.0,-0.01,0.01,1,Lying,4
2019-01-17,11:48:23,-4.89,-0.01999998,8.019999499999999,0.0,-0.01,0.01,0.0,-0.01,0.01,1,Lying,4
2019-01-17,11:48:23,-4.89,-0.01999998,8.019999499999999,0.0,-0.01,0.01,0.0,-0.01,0.01,1,Lying,4
2019-01-17,11:48:23,-4.8599997,-0.060000002000000004,7.96,0.0,-0.01,0.01,0.0,-0.01,0.01,1,Lying,4
2019-01-17,11:48:23,-4.8599997,-0.060000002000000004,7.96,0.0,-0.02,0.0,0.0,-0.02,0.0,1,Lying,4
2019-01-17,11:48:24,-4.9199996,-0.030000001000000002,7.9799995,0.0,-0.02,0.0,0.0,-0.02,0.0,1,Lying,4
2019-01-17,11:48:24,-4.9199996,-0.030000001000000002,7.9799995,0.0,0.0,0.01,0.0,0.0,0.01,1,Lying,4
2019-01-17,11:48:24,-4.89,-0.00999999,7.9799995,0.0,-0.01,0.01,0.0,-0.01,0.01,1,Lying,4
2019-01-17,11:48:24,-4.89,-0.00999999,7.9799995,0.0,-0.01,0.01,0.0,-0.01,0.01,1,Lying,4
2019-01-17,11:48:24,-4.87,-0.01999998,8.049999,0.0,-0.01,0.01,0.0,-0.01,0.01,1,Lying,4
2019-01-17,11:48:24,-4.87,-0.01999998,8.049999,0.0,-0.01,0.01,0.0,-0.01,0.01,1,Lying,4
2019-01-17,11:48:24,-4.89,-0.03999999,7.95,0.0,-0.01,0.01,0.0,-0.01,0.01,1,Lying,4
2019-01-17,11:48:24,-4.89,-0.03999999,7.95,0.0,0.0,0.0,0.0,0.0,0.0,1,Lying,4
2019-01-17,11:48:24,-4.8299994,0.0,8.019999499999999,0.0,0.0,0.0,0.0,0.0,0.0,1,Lying,4
2019-01-17,11:48:24,-4.8299994,0.0,8.019999499999999,0.0,-0.02,0.0,0.0,-0.02,0.0,1,Lying,4
2019-01-17,11:48:24,-4.93,-0.06999999,7.96,0.0,-0.02,0.0,0.0,-0.02,0.0,1,Lying,4
2019-01-17,11:48:24,-4.93,-0.06999999,7.96,0.0,-0.01,0.0,0.0,-0.01,0.0,1,Lying,4
2019-01-17,11:48:24,-4.7899995,-0.01999998,8.019999499999999,0.0,-0.03,0.01,0.0,-0.03,0.01,1,Lying,4
2019-01-17,11:48:24,-4.7899995,-0.01999998,8.019999499999999,0.0,-0.03,0.01,0.0,-0.03,0.01,1,Lying,4
2019-01-17,11:48:24,-4.8299994,-0.049999982000000005,8.009999,0.0,-0.03,0.01,0.0,-0.03,0.01,1,Lying,4
2019-01-17,11:48:24,-4.8299994,-0.049999982000000005,8.009999,0.0,-0.02,0.0,0.0,-0.02,0.0,1,Lying,4
2019-01-17,11:48:24,-4.8599997,-0.049999982000000005,8.059999000000001,0.0,-0.02,0.0,0.0,-0.02,0.0,1,Lying,4
2019-01-17,11:48:24,-4.8599997,-0.049999982000000005,8.059999000000001,0.0,-0.01,0.0,0.0,-0.01,0.0,1,Lying,4
2019-01-17,11:48:24,-4.8299994,-0.049999982000000005,8.07,0.0,-0.01,0.0,0.0,-0.01,0.0,1,Lying,4
2019-01-17,11:48:24,-4.8299994,-0.049999982000000005,8.07,0.0,-0.01,0.0,0.0,-0.01,0.0,1,Lying,4
2019-01-17,11:48:24,-4.85,-0.07999998,7.99,0.0,-0.01,0.0,0.0,-0.01,0.0,1,Lying,4
2019-01-17,11:48:24,-4.85,-0.07999998,7.99,0.0,0.0,0.0,0.0,0.0,0.0,1,Lying,4
2019-01-17,11:48:24,-4.85,-0.049999982000000005,8.019999499999999,0.0,0.0,0.0,0.0,0.0,0.0,1,Lying,4
2019-01-17,11:48:24,-4.85,-0.049999982000000005,8.019999499999999,0.0,0.0,0.0,0.0,0.0,0.0,1,Lying,4
2019-01-17,11:48:24,-4.9199996,-0.06999999,8.009999,0.0,0.0,0.0,0.0,0.0,0.0,1,Lying,4
2019-01-17,11:48:24,-4.9199996,-0.06999999,8.009999,0.0,0.0,0.0,0.0,0.0,0.0,1,Lying,4
2019-01-17,11:48:24,-4.87,-0.030000001000000002,8.07,0.0,0.0,0.0,0.0,0.0,0.0,1,Lying,4
2019-01-17,11:48:24,-4.87,-0.030000001000000002,8.07,0.0,0.0,0.0,0.0,0.0,0.0,1,Lying,4
2019-01-17,11:48:24,-4.8099995,0.01999998,8.049999,0.0,0.0,0.0,0.0,0.0,0.0,1,Lying,4
2019-01-17,11:48:24,-4.8099995,0.01999998,8.049999,0.0,0.0,0.0,0.0,0.0,0.0,1,Lying,4
2019-01-17,11:48:24,-4.87,-0.01999998,7.95,0.0,0.0,0.0,0.0,0.0,0.0,1,Lying,4
2019-01-17,11:48:24,-4.87,-0.01999998,7.95,0.0,0.0,0.0,0.0,0.0,0.0,1,Lying,4
2019-01-17,11:48:24,-4.8399997,-0.030000001000000002,8.009999,0.0,0.0,0.0,0.0,0.0,0.0,1,Lying,4
2019-01-17,11:48:24,-4.8399997,-0.030000001000000002,8.009999,0.0,-0.01,0.0,0.0,-0.01,0.0,1,Lying,4
2019-01-17,11:48:24,-4.7999997,-0.03999999,8.03,0.0,-0.01,0.0,0.0,-0.01,0.0,1,Lying,4
2019-01-17,11:48:24,-4.7999997,-0.03999999,8.03,0.0,0.0,0.01,0.0,0.0,0.01,1,Lying,4
2019-01-17,11:48:24,-4.8599997,-0.049999982000000005,8.019999499999999,0.0,0.0,0.01,0.0,0.0,0.01,1,Lying,4
2019-01-17,11:48:24,-4.8599997,-0.049999982000000005,8.019999499999999,0.0,0.01,0.01,0.0,0.01,0.01,1,Lying,4
2019-01-17,11:48:24,-4.89,-0.00999999,7.91,0.0,0.01,0.01,0.0,0.01,0.01,1,Lying,4
2019-01-17,11:48:24,-4.89,-0.00999999,7.91,0.0,0.02,0.01,0.0,0.02,0.01,1,Lying,4
2019-01-17,11:48:24,-4.9199996,-0.049999982000000005,7.8999996,0.0,0.02,0.01,0.0,0.02,0.01,1,Lying,4
2019-01-17,11:48:24,-4.9199996,-0.049999982000000005,7.8999996,0.0,0.0,0.0,0.0,0.0,0.0,1,Lying,4
2019-01-17,11:48:24,-4.91,0.030000031,8.049999,0.0,0.0,0.0,0.0,0.0,0.0,1,Lying,4
2019-01-17,11:48:24,-4.91,0.030000031,8.049999,0.0,-0.02,0.0,0.0,-0.02,0.0,1,Lying,4
2019-01-17,11:48:24,-4.7,-0.13999999,8.139999000000001,0.0,-0.02,0.0,0.0,-0.02,0.0,1,Lying,4
2019-01-17,11:48:24,-4.7,-0.13999999,8.139999000000001,0.0,-0.049999997000000004,0.0,0.0,-0.049999997000000004,0.0,1,Lying,4
2019-01-17,11:48:24,-4.7699995,-0.030000001000000002,7.99,0.0,-0.049999997000000004,0.0,0.0,-0.049999997000000004,0.0,1,Lying,4
2019-01-17,11:48:24,-4.7699995,-0.030000001000000002,7.99,0.0,0.0,-0.01,0.0,0.0,-0.01,1,Lying,4
2019-01-17,11:48:24,-4.8099995,-0.060000002000000004,7.99,0.0,0.0,-0.01,0.0,0.0,-0.01,1,Lying,4
2019-01-17,11:48:24,-4.8099995,-0.060000002000000004,7.99,0.0,0.03,0.0,0.0,0.03,0.0,1,Lying,4
2019-01-17,11:48:25,-5.0399995,-0.01999998,7.9399996,0.0,0.03,0.0,0.0,0.03,0.0,1,Lying,4
2019-01-17,11:48:25,-5.0399995,-0.01999998,7.9399996,0.0,0.03,0.0,0.0,0.03,0.0,1,Lying,4
2019-01-17,11:48:25,-4.8799996,-0.049999982000000005,8.059999000000001,0.0,0.03,0.0,0.0,0.03,0.0,1,Lying,4
2019-01-17,11:48:25,-4.8799996,-0.049999982000000005,8.059999000000001,0.0,-0.02,0.01,0.0,-0.02,0.01,1,Lying,4
2019-01-17,11:48:25,-4.7599998,0.01999998,8.139999000000001,0.0,-0.02,0.01,0.0,-0.02,0.01,1,Lying,4
2019-01-17,11:48:25,-4.7599998,0.01999998,8.139999000000001,0.0,-0.02,0.01,0.0,-0.02,0.01,1,Lying,4
2019-01-17,11:48:25,-4.8399997,0.01999998,8.08,0.0,-0.02,0.01,0.0,-0.02,0.01,1,Lying,4
2019-01-17,11:48:25,-4.8399997,0.01999998,8.08,0.01,0.03,0.0,0.01,0.03,0.0,1,Lying,4
2019-01-17,11:48:25,-4.87,-0.09999999400000001,7.8599997,0.01,0.03,0.0,0.01,0.03,0.0,1,Lying,4
2019-01-17,11:48:25,-4.87,-0.09999999400000001,7.8599997,0.0,0.049999997000000004,0.01,0.0,0.049999997000000004,0.01,1,Lying,4
2019-01-17,11:48:25,-4.99,0.04000002,7.89,0.0,0.049999997000000004,0.01,0.0,0.049999997000000004,0.01,1,Lying,4
2019-01-17,11:48:25,-4.99,0.04000002,7.89,0.0,0.04,0.01,0.0,0.04,0.01,1,Lying,4
2019-01-17,11:48:25,-4.99,-0.060000002000000004,7.95,0.0,0.04,0.01,0.0,0.04,0.01,1,Lying,4
2019-01-17,11:48:25,-4.99,-0.060000002000000004,7.95,0.0,-0.02,0.01,0.0,-0.02,0.01,1,Lying,4
2019-01-17,11:48:25,-4.8299994,-0.00999999,8.019999499999999,0.0,-0.02,0.01,0.0,-0.02,0.01,1,Lying,4
2019-01-17,11:48:25,-4.8299994,-0.00999999,8.019999499999999,0.01,-0.06,0.01,0.01,-0.06,0.01,1,Lying,4
2019-01-17,11:48:25,-4.7899995,-0.06999999,8.089999,0.01,-0.06,0.01,0.01,-0.06,0.01,1,Lying,4
2019-01-17,11:48:25,-4.7899995,-0.06999999,8.089999,0.01,-0.04,0.0,0.01,-0.04,0.0,1,Lying,4
2019-01-17,11:48:25,-4.8799996,-0.00999999,8.009999,0.01,-0.04,0.0,0.01,-0.04,0.0,1,Lying,4
2019-01-17,11:48:25,-4.8799996,-0.00999999,8.009999,0.0,0.0,0.0,0.0,0.0,0.0,1,Lying,4
2019-01-17,11:48:25,-4.87,-0.03999999,7.99,0.0,0.0,0.0,0.0,0.0,0.0,1,Lying,4
2019-01-17,11:48:25,-4.87,-0.03999999,7.99,0.0,0.0,0.0,0.0,0.0,0.0,1,Lying,4
2019-01-17,11:48:25,-4.93,-0.01999998,7.96,0.0,0.0,0.0,0.0,0.0,0.0,1,Lying,4
2019-01-17,11:48:25,-4.93,-0.01999998,7.96,0.0,0.0,0.01,0.0,0.0,0.01,1,Lying,4
2019-01-17,11:48:25,-4.85,-0.06999999,8.009999,0.0,0.0,0.01,0.0,0.0,0.01,1,Lying,4
2019-01-17,11:48:25,-4.85,-0.06999999,8.009999,0.0,-0.01,0.0,0.0,-0.01,0.0,1,Lying,4
2019-01-17,11:48:25,-4.8199997,-0.030000001000000002,8.04,0.0,-0.01,0.0,0.0,-0.01,0.0,1,Lying,4
2019-01-17,11:48:25,-4.8199997,-0.030000001000000002,8.04,0.01,0.0,0.01,0.01,0.0,0.01,1,Lying,4
2019-01-17,11:48:25,-4.87,-0.049999982000000005,7.99,0.01,0.0,0.01,0.01,0.0,0.01,1,Lying,4
2019-01-17,11:48:25,-4.87,-0.049999982000000005,7.99,0.0,0.0,0.0,0.0,0.0,0.0,1,Lying,4
2019-01-17,11:48:25,-4.9199996,-0.09,7.99,0.0,0.0,0.0,0.0,0.0,0.0,1,Lying,4
2019-01-17,11:48:25,-4.9199996,-0.09,7.99,0.0,-0.01,0.0,0.0,-0.01,0.0,1,Lying,4
2019-01-17,11:48:25,-4.89,-0.060000002000000004,7.99,0.0,-0.01,0.0,0.0,-0.01,0.0,1,Lying,4
2019-01-17,11:48:25,-4.89,-0.060000002000000004,7.99,0.0,0.0,0.0,0.0,0.0,0.0,1,Lying,4
2019-01-17,11:48:25,-4.8399997,-0.01999998,8.0,0.0,0.0,0.0,0.0,0.0,0.0,1,Lying,4
2019-01-17,11:48:25,-4.8399997,-0.01999998,8.0,0.0,-0.01,0.0,0.0,-0.01,0.0,1,Lying,4
2019-01-17,11:48:25,-4.8999996,-0.049999982000000005,8.04,0.0,-0.01,0.0,0.0,-0.01,0.0,1,Lying,4
2019-01-17,11:48:25,-4.8999996,-0.049999982000000005,8.04,0.0,0.0,0.0,0.0,0.0,0.0,1,Lying,4
2019-01-17,11:48:25,-4.9399996,-0.049999982000000005,7.99,0.0,0.0,0.0,0.0,0.0,0.0,1,Lying,4
2019-01-17,11:48:25,-4.9399996,-0.049999982000000005,7.99,0.0,0.0,0.0,0.0,0.0,0.0,1,Lying,4
2019-01-17,11:48:25,-4.8599997,-0.01999998,7.9399996,0.0,0.0,0.0,0.0,0.0,0.0,1,Lying,4
2019-01-17,11:48:25,-4.8599997,-0.01999998,7.9399996,0.0,0.0,0.01,0.0,0.0,0.01,1,Lying,4
2019-01-17,11:48:25,-4.91,-0.06999999,7.9699993000000005,0.0,0.0,0.01,0.0,0.0,0.01,1,Lying,4
2019-01-17,11:48:25,-4.91,-0.06999999,7.9699993000000005,0.0,-0.01,0.0,0.0,-0.01,0.0,1,Lying,4
2019-01-17,11:48:26,-4.8599997,-0.049999982000000005,8.03,0.0,-0.01,0.0,0.0,-0.01,0.0,1,Lying,4
2019-01-17,11:48:26,-4.8599997,-0.049999982000000005,8.03,0.0,-0.01,0.0,0.0,-0.01,0.0,1,Lying,4
2019-01-17,11:48:26,-4.8299994,-0.060000002000000004,8.059999000000001,0.0,-0.01,0.0,0.0,-0.01,0.0,1,Lying,4
2019-01-17,11:48:26,-4.8299994,-0.060000002000000004,8.059999000000001,0.0,0.0,0.0,0.0,0.0,0.0,1,Lying,4
2019-01-17,11:48:26,-4.9399996,-0.060000002000000004,8.009999,0.0,0.0,0.0,0.0,0.0,0.0,1,Lying,4
2019-01-17,11:48:26,-4.9399996,-0.060000002000000004,8.009999,0.0,0.0,0.0,0.0,0.0,0.0,1,Lying,4
2019-01-17,11:48:26,-4.85,-0.060000002000000004,8.019999499999999,0.0,0.0,0.0,0.0,0.0,0.0,1,Lying,4
2019-01-17,11:48:26,-4.85,-0.060000002000000004,8.019999499999999,0.0,0.0,0.01,0.0,0.0,0.01,1,Lying,4
2019-01-17,11:48:26,-4.9399996,-0.01999998,8.0,0.0,0.0,0.01,0.0,0.0,0.01,1,Lying,4
2019-01-17,11:48:26,-4.9399996,-0.01999998,8.0,0.0,0.0,0.01,0.0,0.0,0.01,1,Lying,4
2019-01-17,11:48:26,-4.9199996,-0.030000001000000002,8.0,0.0,0.0,0.01,0.0,0.0,0.01,1,Lying,4
2019-01-17,11:48:26,-4.9199996,-0.030000001000000002,8.0,0.0,0.0,0.0,0.0,0.0,0.0,1,Lying,4
2019-01-17,11:48:26,-4.87,-0.06999999,8.019999499999999,0.0,0.0,0.0,0.0,0.0,0.0,1,Lying,4
2019-01-17,11:48:26,-4.87,-0.06999999,8.019999499999999,0.0,-0.01,0.0,0.0,-0.01,0.0,1,Lying,4
2019-01-17,11:48:26,-4.8599997,-0.030000001000000002,7.95,0.0,-0.01,0.0,0.0,-0.01,0.0,1,Lying,4
2019-01-17,11:48:26,-4.8599997,-0.030000001000000002,7.95,0.0,0.0,0.0,0.0,0.0,0.0,1,Lying,4
2019-01-17,11:48:26,-4.9399996,-0.06999999,7.9399996,0.0,0.0,0.0,0.0,0.0,0.0,1,Lying,4
2019-01-17,11:48:26,-4.9399996,-0.06999999,7.9399996,0.0,-0.02,0.0,0.0,-0.02,0.0,1,Lying,4
2019-01-17,11:48:26,-4.8399997,-0.09999999400000001,8.07,0.0,-0.02,0.0,0.0,-0.02,0.0,1,Lying,4
2019-01-17,11:48:26,-4.8399997,-0.09999999400000001,8.07,0.0,-0.049999997000000004,0.0,0.0,-0.049999997000000004,0.0,1,Lying,4
2019-01-17,11:48:26,-4.85,-0.049999982000000005,8.019999499999999,0.0,-0.049999997000000004,0.0,0.0,-0.049999997000000004,0.0,1,Lying,4
2019-01-17,11:48:26,-4.85,-0.049999982000000005,8.019999499999999,0.0,0.0,0.0,0.0,0.0,0.0,1,Lying,4
2019-01-17,11:48:26,-4.8199997,-0.060000002000000004,8.08,0.0,0.0,0.0,0.0,0.0,0.0,1,Lying,4
2019-01-17,11:48:26,-4.8199997,-0.060000002000000004,8.08,0.0,0.0,0.0,0.0,0.0,0.0,1,Lying,4
2019-01-17,11:48:26,-4.89,-0.09,7.9699993000000005,0.0,0.0,0.0,0.0,0.0,0.0,1,Lying,4
2019-01-17,11:48:26,-4.89,-0.09,7.9699993000000005,0.0,0.02,0.0,0.0,0.02,0.0,1,Lying,4
2019-01-17,11:48:26,-4.9199996,-0.049999982000000005,8.059999000000001,0.0,0.02,0.0,0.0,0.02,0.0,1,Lying,4
2019-01-17,11:48:26,-4.9199996,-0.049999982000000005,8.059999000000001,0.0,0.0,0.0,0.0,0.0,0.0,1,Lying,4
2019-01-17,11:48:26,-4.85,-0.060000002000000004,8.009999,0.0,0.0,0.0,0.0,0.0,0.0,1,Lying,4
2019-01-17,11:48:26,-4.85,-0.060000002000000004,8.009999,0.0,-0.01,0.0,0.0,-0.01,0.0,1,Lying,4
2019-01-17,11:48:26,-4.95,-0.060000002000000004,7.9699993000000005,0.0,-0.01,0.0,0.0,-0.01,0.0,1,Lying,4
2019-01-17,11:48:26,-4.95,-0.060000002000000004,7.9699993000000005,0.0,0.0,0.0,0.0,0.0,0.0,1,Lying,4
2019-01-17,11:48:26,-4.91,-0.06999999,8.009999,0.0,-0.02,0.01,0.0,-0.02,0.01,1,Lying,4
2019-01-17,11:48:26,-4.91,-0.06999999,8.009999,0.0,-0.02,0.01,0.0,-0.02,0.01,1,Lying,4
2019-01-17,11:48:26,-4.7999997,-0.01999998,8.0,0.0,-0.02,0.01,0.0,-0.02,0.01,1,Lying,4
2019-01-17,11:48:26,-4.7999997,-0.01999998,8.0,0.0,0.01,0.0,0.0,0.01,0.0,1,Lying,4
2019-01-17,11:48:26,-4.9599996,-0.109999985,7.9399996,0.0,0.01,0.0,0.0,0.01,0.0,1,Lying,4
2019-01-17,11:48:26,-4.9599996,-0.109999985,7.9399996,0.0,0.01,0.0,0.0,0.01,0.0,1,Lying,4
2019-01-17,11:48:26,-4.8999996,-0.03999999,7.99,0.0,0.01,0.0,0.0,0.01,0.0,1,Lying,4
2019-01-17,11:48:26,-4.8999996,-0.03999999,7.99,0.0,0.0,0.0,0.0,0.0,0.0,1,Lying,4
2019-01-17,11:48:26,-4.8399997,-0.049999982000000005,8.0,0.0,0.0,0.0,0.0,0.0,0.0,1,Lying,4
2019-01-17,11:48:26,-4.8399997,-0.049999982000000005,8.0,0.0,-0.02,0.0,0.0,-0.02,0.0,1,Lying,4
2019-01-17,11:48:26,-4.89,-0.09,7.99,0.0,-0.02,0.0,0.0,-0.02,0.0,1,Lying,4
2019-01-17,11:48:26,-4.89,-0.09,7.99,0.0,0.0,0.0,0.0,0.0,0.0,1,Lying,4
2019-01-17,11:48:26,-4.8999996,-0.09,8.0,0.0,0.0,0.0,0.0,0.0,0.0,1,Lying,4
2019-01-17,11:48:27,-4.8999996,-0.09,8.0,0.0,0.0,0.0,0.0,0.0,0.0,1,Lying,4
2019-01-17,11:48:27,-4.85,-0.060000002000000004,7.93,0.0,0.0,0.0,0.0,0.0,0.0,1,Lying,4
2019-01-17,11:48:27,-4.85,-0.060000002000000004,7.93,0.0,0.0,0.0,0.0,0.0,0.0,1,Lying,4
2019-01-17,11:48:27,-4.95,-0.06999999,7.95,0.0,0.0,0.0,0.0,0.0,0.0,1,Lying,4
2019-01-17,11:48:27,-4.95,-0.06999999,7.95,0.0,0.0,0.0,0.0,0.0,0.0,1,Lying,4
2019-01-17,11:48:27,-4.89,-0.03999999,8.019999499999999,0.0,0.0,0.0,0.0,0.0,0.0,1,Lying,4
2019-01-17,11:48:27,-4.89,-0.03999999,8.019999499999999,0.0,0.0,0.0,0.0,0.0,0.0,1,Lying,4
2019-01-17,11:48:27,-4.7899995,-0.06999999,8.009999,0.0,0.0,0.0,0.0,0.0,0.0,1,Lying,4
2019-01-17,11:48:27,-4.7899995,-0.06999999,8.009999,0.0,-0.03,0.01,0.0,-0.03,0.01,1,Lying,4
2019-01-17,11:48:27,-4.89,-0.049999982000000005,8.03,0.0,-0.03,0.01,0.0,-0.03,0.01,1,Lying,4
2019-01-17,11:48:27,-4.89,-0.049999982000000005,8.03,0.0,0.0,0.0,0.0,0.0,0.0,1,Lying,4
2019-01-17,11:48:27,-4.95,-0.060000002000000004,7.9699993000000005,0.0,0.0,0.0,0.0,0.0,0.0,1,Lying,4
2019-01-17,11:48:27,-4.95,-0.060000002000000004,7.9699993000000005,0.0,0.01,0.0,0.0,0.01,0.0,1,Lying,4
2019-01-17,11:48:27,-4.8799996,-0.030000001000000002,7.96,0.0,0.01,0.0,0.0,0.01,0.0,1,Lying,4
2019-01-17,11:48:27,-4.8799996,-0.030000001000000002,7.96,0.0,0.0,0.0,0.0,0.0,0.0,1,Lying,4
2019-01-17,11:48:27,-4.87,-0.01999998,8.0,0.0,0.0,0.0,0.0,0.0,0.0,1,Lying,4
2019-01-17,11:48:27,-4.87,-0.01999998,8.0,0.0,0.0,0.0,0.0,0.0,0.0,1,Lying,4
2019-01-17,11:48:27,-4.99,-0.07999998,7.89,0.0,0.0,0.0,0.0,0.0,0.0,1,Lying,4
2019-01-17,11:48:27,-4.99,-0.07999998,7.89,0.0,0.01,0.0,0.0,0.01,0.0,1,Lying,4
2019-01-17,11:48:27,-4.7999997,-0.060000002000000004,8.16,0.0,0.01,0.0,0.0,0.01,0.0,1,Lying,4
2019-01-17,11:48:27,-4.7999997,-0.060000002000000004,8.16,0.0,-0.04,0.0,0.0,-0.04,0.0,1,Lying,4
2019-01-17,11:48:27,-4.8399997,-0.049999982000000005,8.04,0.0,-0.04,0.0,0.0,-0.04,0.0,1,Lying,4
2019-01-17,11:48:27,-4.8399997,-0.049999982000000005,8.04,0.0,-0.01,0.0,0.0,-0.01,0.0,1,Lying,4
2019-01-17,11:48:27,-4.9199996,-0.01999998,7.9799995,0.0,-0.01,0.0,0.0,-0.01,0.0,1,Lying,4
2019-01-17,11:48:27,-4.9199996,-0.01999998,7.9799995,0.01,0.02,0.0,0.01,0.02,0.0,1,Lying,4
2019-01-17,11:48:27,-4.8599997,-0.049999982000000005,8.07,0.01,0.02,0.0,0.01,0.02,0.0,1,Lying,4
2019-01-17,11:48:27,-4.8599997,-0.049999982000000005,8.07,0.0,-0.01,0.0,0.0,-0.01,0.0,1,Lying,4
2019-01-17,11:48:27,-4.8599997,-0.060000002000000004,8.03,0.0,-0.01,0.0,0.0,-0.01,0.0,1,Lying,4
2019-01-17,11:48:27,-4.8599997,-0.060000002000000004,8.03,0.0,0.0,0.0,0.0,0.0,0.0,1,Lying,4
2019-01-17,11:48:27,-4.89,-0.049999982000000005,8.009999,0.0,0.0,0.0,0.0,0.0,0.0,1,Lying,4
2019-01-17,11:48:27,-4.89,-0.049999982000000005,8.009999,0.0,0.0,0.0,0.0,0.0,0.0,1,Lying,4
2019-01-17,11:48:27,-4.91,-0.049999982000000005,7.95,0.0,0.0,0.0,0.0,0.0,0.0,1,Lying,4
2019-01-17,11:48:27,-4.91,-0.049999982000000005,7.95,0.0,0.0,0.0,0.0,0.0,0.0,1,Lying,4
2019-01-17,11:48:27,-4.9199996,-0.060000002000000004,7.91,0.0,0.0,0.0,0.0,0.0,0.0,1,Lying,4
2019-01-17,11:48:27,-4.9199996,-0.060000002000000004,7.91,0.0,0.0,0.0,0.0,0.0,0.0,1,Lying,4
2019-01-17,11:48:27,-4.93,-0.03999999,7.96,0.0,0.0,0.0,0.0,0.0,0.0,1,Lying,4
2019-01-17,11:48:27,-4.93,-0.03999999,7.96,0.0,-0.01,0.01,0.0,-0.01,0.01,1,Lying,4
2019-01-17,11:48:27,-4.93,-0.06999999,7.9699993000000005,0.0,-0.01,0.01,0.0,-0.01,0.01,1,Lying,4
2019-01-17,11:48:27,-4.93,-0.06999999,7.9699993000000005,0.0,-0.02,0.01,0.0,-0.02,0.01,1,Lying,4
2019-01-17,11:48:27,-4.8299994,-0.09,8.099999,0.0,-0.02,0.01,0.0,-0.02,0.01,1,Lying,4
2019-01-17,11:48:27,-4.8299994,-0.09,8.099999,0.0,-0.03,0.0,0.0,-0.03,0.0,1,Lying,4
2019-01-17,11:48:27,-4.89,-0.049999982000000005,7.9799995,0.0,-0.03,0.0,0.0,-0.03,0.0,1,Lying,4
2019-01-17,11:48:27,-4.89,-0.049999982000000005,7.9799995,0.0,0.0,0.0,0.0,0.0,0.0,1,Lying,4
2019-01-17,11:48:27,-4.9799995,-0.03999999,7.9399996,0.0,0.0,0.0,0.0,0.0,0.0,1,Lying,4
2019-01-17,11:48:27,-4.9799995,-0.03999999,7.9399996,0.0,0.01,0.0,0.0,0.01,0.0,1,Lying,4
2019-01-17,11:48:28,-4.9199996,-0.03999999,7.93,0.0,0.01,0.0,0.0,0.01,0.0,1,Lying,4
2019-01-17,11:48:28,-4.9199996,-0.03999999,7.93,0.0,-0.01,0.01,0.0,-0.01,0.01,1,Lying,4
2019-01-17,11:48:28,-4.8099995,-0.030000001000000002,8.129999,0.0,-0.01,0.01,0.0,-0.01,0.01,1,Lying,4
2019-01-17,11:48:28,-4.8099995,-0.030000001000000002,8.129999,-0.01,-0.049999997000000004,0.01,-0.01,-0.049999997000000004,0.01,1,Lying,4
2019-01-17,11:48:28,-4.7799997,-0.09999999400000001,8.089999,-0.01,-0.049999997000000004,0.01,-0.01,-0.049999997000000004,0.01,1,Lying,4
2019-01-17,11:48:28,-4.7799997,-0.09999999400000001,8.089999,0.0,-0.01,0.0,0.0,-0.01,0.0,1,Lying,4
2019-01-17,11:48:28,-4.91,-0.060000002000000004,7.9799995,0.0,-0.01,0.0,0.0,-0.01,0.0,1,Lying,4
2019-01-17,11:48:28,-4.91,-0.060000002000000004,7.9799995,0.0,0.02,0.0,0.0,0.02,0.0,1,Lying,4
2019-01-17,11:48:28,-4.9199996,-0.049999982000000005,7.99,0.0,0.02,0.0,0.0,0.02,0.0,1,Lying,4
2019-01-17,11:48:28,-4.9199996,-0.049999982000000005,7.99,0.0,0.0,0.0,0.0,0.0,0.0,1,Lying,4
2019-01-17,11:48:28,-4.8599997,-0.00999999,8.03,0.0,0.0,0.0,0.0,0.0,0.0,1,Lying,4
2019-01-17,11:48:28,-4.8599997,-0.00999999,8.03,0.01,0.01,0.01,0.01,0.01,0.01,1,Lying,4
2019-01-17,11:48:28,-4.8199997,-0.060000002000000004,8.009999,0.01,0.01,0.01,0.01,0.01,0.01,1,Lying,4
2019-01-17,11:48:28,-4.8199997,-0.060000002000000004,8.009999,0.0,0.02,0.0,0.0,0.02,0.0,1,Lying,4
2019-01-17,11:48:28,-5.0799994,-0.06999999,7.8799996,0.0,0.02,0.0,0.0,0.02,0.0,1,Lying,4
2019-01-17,11:48:28,-5.0799994,-0.06999999,7.8799996,0.0,0.01,0.0,0.0,0.01,0.0,1,Lying,4
2019-01-17,11:48:28,-4.7499995,-0.03999999,8.07,0.0,0.01,0.0,0.0,0.01,0.0,1,Lying,4
2019-01-17,11:48:28,-4.7499995,-0.03999999,8.07,0.0,-0.06,0.02,0.0,-0.06,0.02,1,Lying,4
2019-01-17,11:48:28,-4.9399996,-0.03999999,7.9699993000000005,0.0,-0.06,0.02,0.0,-0.06,0.02,1,Lying,4
2019-01-17,11:48:28,-4.9399996,-0.03999999,7.9699993000000005,0.0,0.01,0.0,0.0,0.01,0.0,1,Lying,4
2019-01-17,11:48:28,-4.8399997,-0.07999998,8.03,0.0,0.01,0.0,0.0,0.01,0.0,1,Lying,4
2019-01-17,11:48:28,-4.8399997,-0.07999998,8.03,0.0,-0.02,0.0,0.0,-0.02,0.0,1,Lying,4
2019-01-17,11:48:28,-4.8199997,-0.03999999,8.04,0.0,-0.02,0.0,0.0,-0.02,0.0,1,Lying,4
2019-01-17,11:48:28,-4.8199997,-0.03999999,8.04,0.0,-0.01,0.01,0.0,-0.01,0.01,1,Lying,4
2019-01-17,11:48:28,-4.89,-0.049999982000000005,7.9399996,0.0,-0.01,0.01,0.0,-0.01,0.01,1,Lying,4
2019-01-17,11:48:28,-4.89,-0.049999982000000005,7.9399996,0.0,0.02,0.01,0.0,0.02,0.01,1,Lying,4
2019-01-17,11:48:28,-4.8599997,-0.03999999,7.9799995,0.0,0.02,0.01,0.0,0.02,0.01,1,Lying,4
2019-01-17,11:48:28,-4.8599997,-0.03999999,7.9799995,0.0,0.0,0.0,0.0,0.0,0.0,1,Lying,4
2019-01-17,11:48:28,-4.89,-0.060000002000000004,7.96,0.0,0.0,0.0,0.0,0.0,0.0,1,Lying,4
2019-01-17,11:48:28,-4.89,-0.060000002000000004,7.96,0.0,0.0,0.01,0.0,0.0,0.01,1,Lying,4
2019-01-17,11:48:28,-4.8799996,-0.07999998,8.049999,0.0,0.0,0.01,0.0,0.0,0.01,1,Lying,4
2019-01-17,11:48:28,-4.8799996,-0.07999998,8.049999,0.0,-0.01,0.0,0.0,-0.01,0.0,1,Lying,4
2019-01-17,11:48:28,-4.8999996,-0.07999998,7.9699993000000005,0.0,-0.01,0.0,0.0,-0.01,0.0,1,Lying,4
2019-01-17,11:48:28,-4.8999996,-0.07999998,7.9699993000000005,0.0,0.0,0.0,0.0,0.0,0.0,1,Lying,4
2019-01-17,11:48:28,-4.85,-0.060000002000000004,8.009999,0.0,0.0,0.0,0.0,0.0,0.0,1,Lying,4
2019-01-17,11:48:28,-4.85,-0.060000002000000004,8.009999,0.0,0.0,0.0,0.0,0.0,0.0,1,Lying,4
2019-01-17,11:48:28,-4.9399996,-0.07999998,7.89,0.0,0.0,0.0,0.0,0.0,0.0,1,Lying,4
2019-01-17,11:48:28,-4.9399996,-0.07999998,7.89,0.0,0.01,0.0,0.0,0.01,0.0,1,Lying,4
2019-01-17,11:48:28,-4.8599997,-0.09999999400000001,8.019999499999999,0.0,0.01,0.0,0.0,0.01,0.0,1,Lying,4
2019-01-17,11:48:28,-4.8599997,-0.09999999400000001,8.019999499999999,0.0,-0.01,0.0,0.0,-0.01,0.0,1,Lying,4
2019-01-17,11:48:28,-4.9399996,-0.049999982000000005,8.04,0.0,-0.01,0.0,0.0,-0.01,0.0,1,Lying,4
2019-01-17,11:48:28,-4.9399996,-0.049999982000000005,8.04,0.0,0.0,0.01,0.0,0.0,0.01,1,Lying,4
2019-01-17,11:48:28,-4.8999996,-0.109999985,7.9799995,0.0,0.0,0.01,0.0,0.0,0.01,1,Lying,4
2019-01-17,11:48:28,-4.8999996,-0.109999985,7.9799995,0.0,0.0,0.0,0.0,0.0,0.0,1,Lying,4
2019-01-17,11:48:29,-4.89,-0.049999982000000005,7.9699993000000005,0.0,0.0,0.0,0.0,0.0,0.0,1,Lying,4
2019-01-17,11:48:29,-4.89,-0.049999982000000005,7.9699993000000005,0.0,0.0,0.01,0.0,0.0,0.01,1,Lying,4
2019-01-17,11:48:29,-4.93,-0.060000002000000004,7.96,0.0,0.0,0.01,0.0,0.0,0.01,1,Lying,4
2019-01-17,11:48:29,-4.93,-0.060000002000000004,7.96,0.0,0.01,0.0,0.0,0.01,0.0,1,Lying,4
2019-01-17,11:48:29,-4.91,-0.06999999,7.9699993000000005,0.0,0.01,0.0,0.0,0.01,0.0,1,Lying,4
2019-01-17,11:48:29,-4.91,-0.06999999,7.9699993000000005,0.0,-0.01,0.0,0.0,-0.01,0.0,1,Lying,4
2019-01-17,11:48:29,-4.8999996,-0.049999982000000005,7.95,0.0,-0.01,0.0,0.0,-0.01,0.0,1,Lying,4
2019-01-17,11:48:29,-4.8999996,-0.049999982000000005,7.95,0.0,0.0,0.01,0.0,0.0,0.01,1,Lying,4
2019-01-17,11:48:29,-4.93,-0.06999999,8.019999499999999,0.0,0.0,0.01,0.0,0.0,0.01,1,Lying,4
2019-01-17,11:48:29,-4.93,-0.06999999,8.019999499999999,0.0,0.0,0.0,0.0,0.0,0.0,1,Lying,4
2019-01-17,11:48:29,-4.8799996,-0.109999985,8.04,0.0,0.0,0.0,0.0,0.0,0.0,1,Lying,4
2019-01-17,11:48:29,-4.8799996,-0.109999985,8.04,0.0,-0.02,0.0,0.0,-0.02,0.0,1,Lying,4
2019-01-17,11:48:29,-4.89,-0.01999998,7.9799995,0.0,-0.02,0.0,0.0,-0.02,0.0,1,Lying,4
2019-01-17,11:48:29,-4.89,-0.01999998,7.9799995,0.01,0.0,0.0,0.01,0.0,0.0,1,Lying,4
2019-01-17,11:48:29,-4.9199996,-0.06999999,7.95,0.01,0.0,0.0,0.01,0.0,0.0,1,Lying,4
2019-01-17,11:48:29,-4.9199996,-0.06999999,7.95,0.0,0.0,0.0,0.0,0.0,0.0,1,Lying,4
2019-01-17,11:48:29,-4.9399996,-0.060000002000000004,8.0,0.0,0.0,0.0,0.0,0.0,0.0,1,Lying,4
2019-01-17,11:48:29,-4.9399996,-0.060000002000000004,8.0,0.01,-0.02,0.0,0.01,-0.02,0.0,1,Lying,4
2019-01-17,11:48:29,-4.7799997,-0.09,8.07,0.01,-0.02,0.0,0.01,-0.02,0.0,1,Lying,4
2019-01-17,11:48:29,-4.7799997,-0.09,8.07,0.0,-0.03,0.0,0.0,-0.03,0.0,1,Lying,4
2019-01-17,11:48:29,-4.8199997,-0.07999998,8.009999,0.0,-0.03,0.0,0.0,-0.03,0.0,1,Lying,4
2019-01-17,11:48:29,-4.8199997,-0.07999998,8.009999,0.0,0.01,0.0,0.0,0.01,0.0,1,Lying,4
2019-01-17,11:48:29,-4.9199996,-0.06999999,8.0,0.0,0.01,0.0,0.0,0.01,0.0,1,Lying,4
2019-01-17,11:48:29,-4.9199996,-0.06999999,8.0,0.0,0.02,0.0,0.0,0.02,0.0,1,Lying,4
2019-01-17,11:48:29,-4.93,-0.09999999400000001,7.99,0.0,0.02,0.0,0.0,0.02,0.0,1,Lying,4
2019-01-17,11:48:29,-4.93,-0.09999999400000001,7.99,0.0,0.0,0.0,0.0,0.0,0.0,1,Lying,4
2019-01-17,11:48:29,-4.89,-0.060000002000000004,8.019999499999999,0.0,0.0,0.0,0.0,0.0,0.0,1,Lying,4
2019-01-17,11:48:29,-4.89,-0.060000002000000004,8.019999499999999,0.0,0.0,0.0,0.0,0.0,0.0,1,Lying,4
2019-01-17,11:48:29,-4.8999996,-0.07999998,8.0,0.0,0.0,0.0,0.0,0.0,0.0,1,Lying,4
2019-01-17,11:48:29,-4.8999996,-0.07999998,8.0,0.0,0.0,0.0,0.0,0.0,0.0,1,Lying,4
2019-01-17,11:48:29,-4.91,-0.09999999400000001,7.9799995,0.0,0.0,0.0,0.0,0.0,0.0,1,Lying,4
2019-01-17,11:48:29,-4.91,-0.09999999400000001,7.9799995,0.0,0.0,0.0,0.0,0.0,0.0,1,Lying,4
2019-01-17,11:48:29,-4.91,-0.00999999,7.95,0.0,0.0,0.0,0.0,0.0,0.0,1,Lying,4
2019-01-17,11:48:29,-4.91,-0.00999999,7.95,0.01,0.0,0.0,0.01,0.0,0.0,1,Lying,4
2019-01-17,11:48:29,-4.8999996,-0.09,7.96,0.01,0.0,0.0,0.01,0.0,0.0,1,Lying,4
2019-01-17,11:48:29,-4.8999996,-0.09,7.96,0.0,0.0,0.0,0.0,0.0,0.0,1,Lying,4
2019-01-17,11:48:29,-4.9399996,-0.07999998,7.96,0.0,0.0,0.0,0.0,0.0,0.0,1,Lying,4
2019-01-17,11:48:29,-4.9399996,-0.07999998,7.96,0.01,0.01,0.0,0.01,0.01,0.0,1,Lying,4
2019-01-17,11:48:29,-4.9799995,-0.06999999,7.9799995,0.01,0.01,0.0,0.01,0.01,0.0,1,Lying,4
2019-01-17,11:48:29,-4.9799995,-0.06999999,7.9799995,0.0,0.0,0.0,0.0,0.0,0.0,1,Lying,4
2019-01-17,11:48:29,-4.9199996,-0.07999998,8.009999,0.0,0.0,0.0,0.0,0.0,0.0,1,Lying,4
2019-01-17,11:48:29,-4.9199996,-0.07999998,8.009999,0.0,-0.01,0.0,0.0,-0.01,0.0,1,Lying,4
2019-01-17,11:48:29,-4.91,-0.049999982000000005,7.99,0.0,-0.01,0.0,0.0,-0.01,0.0,1,Lying,4
2019-01-17,11:48:29,-4.91,-0.049999982000000005,7.99,0.0,0.0,0.01,0.0,0.0,0.01,1,Lying,4
2019-01-17,11:48:29,-5.0099998,-0.13,7.99,0.0,0.01,0.0,0.0,0.01,0.0,1,Lying,4
2019-01-17,11:48:29,-5.0099998,-0.13,7.99,0.0,0.01,0.0,0.0,0.01,0.0,1,Lying,4
2019-01-17,11:48:30,-4.9199996,-0.049999982000000005,8.0,0.0,0.01,0.0,0.0,0.01,0.0,1,Lying,4
2019-01-17,11:48:30,-4.9199996,-0.049999982000000005,8.0,0.0,-0.01,0.01,0.0,-0.01,0.01,1,Lying,4
2019-01-17,11:48:30,-4.9199996,-0.109999985,8.009999,0.0,-0.01,0.01,0.0,-0.01,0.01,1,Lying,4
2019-01-17,11:48:30,-4.9199996,-0.109999985,8.009999,0.0,0.0,0.0,0.0,0.0,0.0,1,Lying,4
2019-01-17,11:48:30,-4.91,-0.01999998,8.04,0.0,0.0,0.0,0.0,0.0,0.0,1,Lying,4
2019-01-17,11:48:30,-4.91,-0.01999998,8.04,0.0,0.0,0.0,0.0,0.0,0.0,1,Lying,4
2019-01-17,11:48:30,-4.93,-0.109999985,8.009999,0.0,0.0,0.0,0.0,0.0,0.0,1,Lying,4
2019-01-17,11:48:30,-4.93,-0.109999985,8.009999,0.0,-0.01,0.0,0.0,-0.01,0.0,1,Lying,4
2019-01-17,11:48:30,-4.93,-0.06999999,7.96,0.0,-0.01,0.0,0.0,-0.01,0.0,1,Lying,4
2019-01-17,11:48:30,-4.93,-0.06999999,7.96,0.0,0.0,0.0,0.0,0.0,0.0,1,Lying,4
2019-01-17,11:48:30,-4.89,-0.049999982000000005,7.93,0.0,0.0,0.0,0.0,0.0,0.0,1,Lying,4
2019-01-17,11:48:30,-4.89,-0.049999982000000005,7.93,0.0,0.0,0.0,0.0,0.0,0.0,1,Lying,4
2019-01-17,11:48:30,-4.93,-0.09,8.009999,0.0,0.0,0.0,0.0,0.0,0.0,1,Lying,4
2019-01-17,11:48:30,-4.93,-0.09,8.009999,0.0,-0.01,0.0,0.0,-0.01,0.0,1,Lying,4
2019-01-17,11:48:30,-4.7999997,-0.01999998,8.019999499999999,0.0,-0.01,0.0,0.0,-0.01,0.0,1,Lying,4
2019-01-17,11:48:30,-4.7999997,-0.01999998,8.019999499999999,0.0,-0.01,0.0,0.0,-0.01,0.0,1,Lying,4
2019-01-17,11:48:30,-4.9399996,-0.060000002000000004,7.99,0.0,-0.01,0.0,0.0,-0.01,0.0,1,Lying,4
2019-01-17,11:48:30,-4.9399996,-0.060000002000000004,7.99,0.0,0.0,0.0,0.0,0.0,0.0,1,Lying,4
2019-01-17,11:48:30,-4.9399996,-0.060000002000000004,7.8999996,0.0,0.0,0.0,0.0,0.0,0.0,1,Lying,4
2019-01-17,11:48:30,-4.9399996,-0.060000002000000004,7.8999996,0.0,-0.01,0.0,0.0,-0.01,0.0,1,Lying,4
2019-01-17,11:48:30,-4.91,-0.06999999,7.99,0.0,-0.03,0.0,0.0,-0.03,0.0,1,Lying,4
2019-01-17,11:48:30,-4.91,-0.06999999,7.99,0.0,-0.03,0.0,0.0,-0.03,0.0,1,Lying,4
2019-01-17,11:48:30,-4.95,-0.060000002000000004,7.9699993000000005,0.0,-0.03,0.0,0.0,-0.03,0.0,1,Lying,4
2019-01-17,11:48:30,-4.95,-0.060000002000000004,7.9699993000000005,0.0,0.0,0.0,0.0,0.0,0.0,1,Lying,4
2019-01-17,11:48:30,-4.89,-0.07999998,8.059999000000001,0.0,0.0,0.0,0.0,0.0,0.0,1,Lying,4
2019-01-17,11:48:30,-4.89,-0.07999998,8.059999000000001,0.0,-0.01,0.0,0.0,-0.01,0.0,1,Lying,4
2019-01-17,11:48:30,-4.9399996,-0.060000002000000004,7.99,0.0,0.0,0.0,0.0,0.0,0.0,1,Lying,4
2019-01-17,11:48:30,-4.9399996,-0.060000002000000004,7.99,0.0,0.0,0.0,0.0,0.0,0.0,1,Lying,4
2019-01-17,11:48:30,-4.89,-0.109999985,8.009999,0.0,0.0,0.0,0.0,0.0,0.0,1,Lying,4
2019-01-17,11:48:30,-4.89,-0.109999985,8.009999,0.0,0.0,0.0,0.0,0.0,0.0,1,Lying,4
2019-01-17,11:48:30,-4.95,-0.03999999,7.96,0.0,0.0,0.0,0.0,0.0,0.0,1,Lying,4
2019-01-17,11:48:30,-4.95,-0.03999999,7.96,0.0,0.0,0.0,0.0,0.0,0.0,1,Lying,4
2019-01-17,11:48:30,-4.87,-0.07999998,8.009999,0.0,0.0,0.0,0.0,0.0,0.0,1,Lying,4
2019-01-17,11:48:30,-4.87,-0.07999998,8.009999,0.0,0.0,0.0,0.0,0.0,0.0,1,Lying,4
2019-01-17,11:48:30,-4.87,-0.06999999,7.99,0.0,0.0,0.0,0.0,0.0,0.0,1,Lying,4
2019-01-17,11:48:30,-4.87,-0.06999999,7.99,0.0,-0.01,0.0,0.0,-0.01,0.0,1,Lying,4
2019-01-17,11:48:30,-4.8999996,-0.060000002000000004,7.96,0.0,-0.01,0.0,0.0,-0.01,0.0,1,Lying,4
2019-01-17,11:48:30,-4.8999996,-0.060000002000000004,7.96,0.0,0.0,0.0,0.0,0.0,0.0,1,Lying,4
2019-01-17,11:48:30,-4.8599997,-0.060000002000000004,8.07,0.0,0.0,0.0,0.0,0.0,0.0,1,Lying,4
2019-01-17,11:48:30,-4.8599997,-0.060000002000000004,8.07,0.0,-0.01,0.01,0.0,-0.01,0.01,1,Lying,4
2019-01-17,11:48:30,-4.97,-0.09,7.96,0.0,-0.01,0.01,0.0,-0.01,0.01,1,Lying,4
2019-01-17,11:48:30,-4.97,-0.09,7.96,0.0,0.0,0.0,0.0,0.0,0.0,1,Lying,4
2019-01-17,11:48:30,-4.9199996,-0.07999998,7.95,0.0,0.0,0.0,0.0,0.0,0.0,1,Lying,4
2019-01-17,11:48:30,-4.9199996,-0.07999998,7.95,0.0,-0.01,0.0,0.0,-0.01,0.0,1,Lying,4
2019-01-17,11:48:30,-4.89,-0.060000002000000004,7.99,0.0,-0.01,0.0,0.0,-0.01,0.0,1,Lying,4
2019-01-17,11:48:30,-4.89,-0.060000002000000004,7.99,0.0,-0.01,0.0,0.0,-0.01,0.0,1,Lying,4
2019-01-17,11:48:30,-4.9599996,-0.049999982000000005,7.99,0.0,-0.01,0.0,0.0,-0.01,0.0,1,Lying,4
2019-01-17,11:48:30,-4.9599996,-0.049999982000000005,7.99,0.0,0.0,0.0,0.0,0.0,0.0,1,Lying,4
2019-01-17,11:48:31,-4.9399996,-0.09,7.9799995,0.0,0.0,0.0,0.0,0.0,0.0,1,Lying,4
2019-01-17,11:48:31,-4.9399996,-0.09,7.9799995,0.0,0.0,0.0,0.0,0.0,0.0,1,Lying,4
2019-01-17,11:48:31,-4.91,-0.07999998,8.019999499999999,0.0,0.0,0.0,0.0,0.0,0.0,1,Lying,4
2019-01-17,11:48:31,-4.91,-0.07999998,8.019999499999999,0.0,0.0,0.0,0.0,0.0,0.0,1,Lying,4
2019-01-17,11:48:31,-4.91,-0.060000002000000004,7.9699993000000005,0.0,0.0,0.0,0.0,0.0,0.0,1,Lying,4
2019-01-17,11:48:31,-4.91,-0.060000002000000004,7.9699993000000005,0.0,0.0,0.01,0.0,0.0,0.01,1,Lying,4
2019-01-17,11:48:31,-4.91,-0.060000002000000004,8.019999499999999,0.0,0.0,0.01,0.0,0.0,0.01,1,Lying,4
2019-01-17,11:48:31,-4.91,-0.060000002000000004,8.019999499999999,0.0,-0.01,0.0,0.0,-0.01,0.0,1,Lying,4
2019-01-17,11:48:31,-4.91,-0.07999998,7.9799995,0.0,-0.01,0.0,0.0,-0.01,0.0,1,Lying,4
2019-01-17,11:48:31,-4.91,-0.07999998,7.9799995,0.0,0.0,0.0,0.0,0.0,0.0,1,Lying,4
2019-01-17,11:48:31,-4.8799996,-0.030000001000000002,7.96,0.0,0.0,0.0,0.0,0.0,0.0,1,Lying,4
2019-01-17,11:48:31,-4.8799996,-0.030000001000000002,7.96,0.0,-0.01,0.0,0.0,-0.01,0.0,1,Lying,4
2019-01-17,11:48:31,-4.95,-0.06999999,8.04,0.0,-0.01,0.0,0.0,-0.01,0.0,1,Lying,4
2019-01-17,11:48:31,-4.95,-0.06999999,8.04,0.0,0.0,0.0,0.0,0.0,0.0,1,Lying,4
2019-01-17,11:48:31,-4.87,-0.060000002000000004,8.0,0.0,0.0,0.0,0.0,0.0,0.0,1,Lying,4
2019-01-17,11:48:31,-4.87,-0.060000002000000004,8.0,0.0,0.0,0.0,0.0,0.0,0.0,1,Lying,4
2019-01-17,11:48:31,-4.8999996,-0.060000002000000004,7.99,0.0,0.0,0.0,0.0,0.0,0.0,1,Lying,4
2019-01-17,11:48:31,-4.8999996,-0.060000002000000004,7.99,0.0,0.0,0.0,0.0,0.0,0.0,1,Lying,4
2019-01-17,11:48:31,-4.8999996,-0.09,8.009999,0.0,0.0,0.0,0.0,0.0,0.0,1,Lying,4
2019-01-17,11:48:31,-4.8999996,-0.09,8.009999,0.0,-0.02,0.0,0.0,-0.02,0.0,1,Lying,4
2019-01-17,11:48:31,-4.91,-0.03999999,8.059999000000001,0.0,-0.02,0.0,0.0,-0.02,0.0,1,Lying,4
2019-01-17,11:48:31,-4.91,-0.03999999,8.059999000000001,0.0,0.0,0.01,0.0,0.0,0.01,1,Lying,4
2019-01-17,11:48:31,-4.91,-0.109999985,7.96,0.0,0.0,0.01,0.0,0.0,0.01,1,Lying,4
2019-01-17,11:48:31,-4.91,-0.109999985,7.96,0.0,0.02,0.01,0.0,0.02,0.01,1,Lying,4
2019-01-17,11:48:31,-4.9199996,-0.01999998,7.9699993000000005,0.0,0.02,0.01,0.0,0.02,0.01,1,Lying,4
2019-01-17,11:48:31,-4.9199996,-0.01999998,7.9699993000000005,0.0,0.0,0.01,0.0,0.0,0.01,1,Lying,4
2019-01-17,11:48:31,-5.0099998,-0.07999998,7.8699994,0.0,0.0,0.01,0.0,0.0,0.01,1,Lying,4
2019-01-17,11:48:31,-5.0099998,-0.07999998,7.8699994,0.0,0.0,0.0,0.0,0.0,0.0,1,Lying,4
2019-01-17,11:48:31,-4.8799996,-0.060000002000000004,8.019999499999999,0.0,0.0,0.0,0.0,0.0,0.0,1,Lying,4
2019-01-17,11:48:31,-4.8799996,-0.060000002000000004,8.019999499999999,0.0,-0.06,0.01,0.0,-0.06,0.01,1,Lying,4
2019-01-17,11:48:31,-4.8599997,-0.07999998,8.009999,0.0,-0.06,0.01,0.0,-0.06,0.01,1,Lying,4
2019-01-17,11:48:31,-4.8599997,-0.07999998,8.009999,0.0,-0.07,0.0,0.0,-0.07,0.0,1,Lying,4
2019-01-17,11:48:31,-4.8199997,-0.06999999,8.08,0.0,-0.07,0.0,0.0,-0.07,0.0,1,Lying,4
2019-01-17,11:48:31,-4.8199997,-0.06999999,8.08,0.0,-0.06,0.01,0.0,-0.06,0.01,1,Lying,4
2019-01-17,11:48:31,-4.7099996,-0.120000005,8.19,0.0,-0.06,0.01,0.0,-0.06,0.01,1,Lying,4
2019-01-17,11:48:31,-4.7099996,-0.120000005,8.19,0.0,-0.03,0.0,0.0,-0.03,0.0,1,Lying,4
2019-01-17,11:48:31,-4.8099995,-0.09,8.139999000000001,0.0,-0.03,0.0,0.0,-0.03,0.0,1,Lying,4
2019-01-17,11:48:31,-4.8099995,-0.09,8.139999000000001,0.01,0.03,0.01,0.01,0.03,0.01,1,Lying,4
2019-01-17,11:48:31,-4.87,0.04000002,7.93,0.01,0.03,0.01,0.01,0.03,0.01,1,Lying,4
2019-01-17,11:48:31,-4.87,0.04000002,7.93,0.03,0.08,0.01,0.03,0.08,0.01,1,Lying,4
2019-01-17,11:48:31,-5.1499996,-0.19,7.8299994,0.03,0.08,0.01,0.03,0.08,0.01,1,Lying,4
2019-01-17,11:48:31,-5.1499996,-0.19,7.8299994,-0.03,0.08,0.0,-0.03,0.08,0.0,1,Lying,4
2019-01-17,11:48:31,-4.9599996,-0.07999998,7.9799995,-0.03,0.08,0.0,-0.03,0.08,0.0,1,Lying,4
2019-01-17,11:48:31,-4.9599996,-0.07999998,7.9799995,-0.01,0.0,0.03,-0.01,0.0,0.03,1,Lying,4
2019-01-17,11:48:31,-4.8399997,0.01999998,8.089999,-0.01,0.0,0.03,-0.01,0.0,0.03,1,Lying,4
2019-01-17,11:48:31,-4.8399997,0.01999998,8.089999,0.01,-0.049999997000000004,0.02,0.01,-0.049999997000000004,0.02,1,Lying,4
2019-01-17,11:48:32,-4.8299994,-0.07999998,8.019999499999999,0.01,-0.049999997000000004,0.02,0.01,-0.049999997000000004,0.02,1,Lying,4
2019-01-17,11:48:32,-4.8299994,-0.07999998,8.019999499999999,0.0,-0.02,0.0,0.0,-0.02,0.0,1,Lying,4
2019-01-17,11:48:32,-4.9399996,-0.09999999400000001,7.89,0.0,-0.02,0.0,0.0,-0.02,0.0,1,Lying,4
2019-01-17,11:48:32,-4.9399996,-0.09999999400000001,7.89,0.0,0.01,0.0,0.0,0.01,0.0,1,Lying,4
2019-01-17,11:48:32,-4.95,0.01999998,7.9199996,0.0,0.01,0.0,0.0,0.01,0.0,1,Lying,4
2019-01-17,11:48:32,-4.95,0.01999998,7.9199996,0.01,0.0,0.01,0.01,0.0,0.01,1,Lying,4
2019-01-17,11:48:32,-4.85,-0.120000005,8.08,0.01,0.0,0.01,0.01,0.0,0.01,1,Lying,4
2019-01-17,11:48:32,-4.85,-0.120000005,8.08,0.0,-0.01,0.0,0.0,-0.01,0.0,1,Lying,4
2019-01-17,11:48:32,-4.89,-0.09,8.07,0.0,-0.01,0.0,0.0,-0.01,0.0,1,Lying,4
2019-01-17,11:48:32,-4.89,-0.09,8.07,0.0,0.0,0.01,0.0,0.0,0.01,1,Lying,4
2019-01-17,11:48:32,-4.9199996,-0.049999982000000005,7.8599997,0.0,0.0,0.01,0.0,0.0,0.01,1,Lying,4
2019-01-17,11:48:32,-4.9199996,-0.049999982000000005,7.8599997,0.0,0.02,0.01,0.0,0.02,0.01,1,Lying,4
2019-01-17,11:48:32,-4.9999995,-0.109999985,7.93,0.0,0.02,0.01,0.0,0.02,0.01,1,Lying,4
2019-01-17,11:48:32,-4.9999995,-0.109999985,7.93,0.0,0.0,0.0,0.0,0.0,0.0,1,Lying,4
2019-01-17,11:48:32,-4.8199997,-0.06999999,8.089999,0.0,-0.03,0.01,0.0,-0.03,0.01,1,Lying,4
2019-01-17,11:48:32,-4.8199997,-0.06999999,8.089999,0.0,-0.03,0.01,0.0,-0.03,0.01,1,Lying,4
2019-01-17,11:48:32,-4.93,-0.09,7.89,0.0,-0.03,0.01,0.0,-0.03,0.01,1,Lying,4
2019-01-17,11:48:32,-4.93,-0.09,7.89,0.0,0.0,0.0,0.0,0.0,0.0,1,Lying,4
2019-01-17,11:48:32,-4.9199996,-0.060000002000000004,7.96,0.0,0.0,0.0,0.0,0.0,0.0,1,Lying,4
2019-01-17,11:48:32,-4.9199996,-0.060000002000000004,7.96,0.0,0.0,0.0,0.0,0.0,0.0,1,Lying,4
2019-01-17,11:48:32,-4.89,-0.06999999,8.08,0.0,0.0,0.0,0.0,0.0,0.0,1,Lying,4
2019-01-17,11:48:32,-4.89,-0.06999999,8.08,0.0,-0.02,0.0,0.0,-0.02,0.0,1,Lying,4
2019-01-17,11:48:32,-4.89,-0.049999982000000005,8.019999499999999,0.0,-0.02,0.0,0.0,-0.02,0.0,1,Lying,4
2019-01-17,11:48:32,-4.89,-0.049999982000000005,8.019999499999999,0.0,0.0,0.01,0.0,0.0,0.01,1,Lying,4
2019-01-17,11:48:32,-4.93,-0.049999982000000005,7.8999996,0.0,0.0,0.01,0.0,0.0,0.01,1,Lying,4
2019-01-17,11:48:32,-4.93,-0.049999982000000005,7.8999996,0.0,0.01,0.0,0.0,0.01,0.0,1,Lying,4
2019-01-17,11:48:32,-4.95,-0.09,7.95,0.0,0.01,0.0,0.0,0.01,0.0,1,Lying,4
2019-01-17,11:48:32,-4.95,-0.09,7.95,0.0,-0.01,0.0,0.0,-0.01,0.0,1,Lying,4
2019-01-17,11:48:32,-4.8999996,-0.049999982000000005,8.03,0.0,-0.01,0.0,0.0,-0.01,0.0,1,Lying,4
2019-01-17,11:48:32,-4.8999996,-0.049999982000000005,8.03,0.0,-0.03,0.01,0.0,-0.03,0.01,1,Lying,4
2019-01-17,11:48:32,-4.8999996,-0.09999999400000001,8.019999499999999,0.0,-0.03,0.01,0.0,-0.03,0.01,1,Lying,4
2019-01-17,11:48:32,-4.8999996,-0.09999999400000001,8.019999499999999,0.0,0.0,0.0,0.0,0.0,0.0,1,Lying,4
2019-01-17,11:48:32,-4.9399996,-0.109999985,7.95,0.0,0.01,0.0,0.0,0.01,0.0,1,Lying,4
2019-01-17,11:48:32,-4.9399996,-0.109999985,7.95,0.0,0.01,0.0,0.0,0.01,0.0,1,Lying,4
2019-01-17,11:48:32,-4.93,-0.03999999,7.8699994,0.0,0.01,0.0,0.0,0.01,0.0,1,Lying,4
2019-01-17,11:48:32,-4.93,-0.03999999,7.8699994,0.0,0.0,0.0,0.0,0.0,0.0,1,Lying,4
2019-01-17,11:48:32,-4.85,-0.03999999,7.9799995,0.0,-0.049999997000000004,0.0,0.0,-0.049999997000000004,0.0,1,Lying,4
2019-01-17,11:48:32,-4.85,-0.03999999,7.9799995,0.0,-0.049999997000000004,0.0,0.0,-0.049999997000000004,0.0,1,Lying,4
2019-01-17,11:48:32,-4.8999996,-0.09,8.009999,0.0,-0.049999997000000004,0.0,0.0,-0.049999997000000004,0.0,1,Lying,4
2019-01-17,11:48:32,-4.8999996,-0.09,8.009999,0.0,0.01,0.0,0.0,0.01,0.0,1,Lying,4
2019-01-17,11:48:32,-4.95,-0.09,8.009999,0.0,0.01,0.0,0.0,0.01,0.0,1,Lying,4
2019-01-17,11:48:32,-4.95,-0.09,8.009999,0.0,0.0,0.0,0.0,0.0,0.0,1,Lying,4
2019-01-17,11:48:32,-4.8799996,-0.09,8.019999499999999,0.0,0.0,0.0,0.0,0.0,0.0,1,Lying,4
2019-01-17,11:48:32,-4.8799996,-0.09,8.019999499999999,0.0,0.0,0.0,0.0,0.0,0.0,1,Lying,4
2019-01-17,11:48:32,-4.93,-0.060000002000000004,7.9199996,0.0,0.0,0.0,0.0,0.0,0.0,1,Lying,4
2019-01-17,11:48:32,-4.93,-0.060000002000000004,7.9199996,0.0,0.01,0.0,0.0,0.01,0.0,1,Lying,4
2019-01-17,11:48:33,-4.8799996,-0.07999998,8.009999,0.0,0.01,0.0,0.0,0.01,0.0,1,Lying,4
2019-01-17,11:48:33,-4.8799996,-0.07999998,8.009999,0.0,-0.01,0.0,0.0,-0.01,0.0,1,Lying,4
2019-01-17,11:48:33,-4.8399997,-0.06999999,8.03,0.0,-0.01,0.0,0.0,-0.01,0.0,1,Lying,4
2019-01-17,11:48:33,-4.8399997,-0.06999999,8.03,0.01,-0.01,0.0,0.01,-0.01,0.0,1,Lying,4
2019-01-17,11:48:33,-4.9399996,-0.120000005,8.04,0.01,-0.01,0.0,0.01,-0.01,0.0,1,Lying,4
2019-01-17,11:48:33,-4.9399996,-0.120000005,8.04,0.0,0.0,0.0,0.0,0.0,0.0,1,Lying,4
2019-01-17,11:48:33,-4.89,-0.049999982000000005,7.99,0.0,0.0,0.0,0.0,0.0,0.0,1,Lying,4
2019-01-17,11:48:33,-4.89,-0.049999982000000005,7.99,0.0,0.0,0.0,0.0,0.0,0.0,1,Lying,4
2019-01-17,11:48:33,-4.8999996,-0.060000002000000004,7.96,0.0,0.0,0.0,0.0,0.0,0.0,1,Lying,4
2019-01-17,11:48:33,-4.8999996,-0.060000002000000004,7.96,0.0,0.0,0.0,0.0,0.0,0.0,1,Lying,4
2019-01-17,11:48:33,-4.95,-0.09,8.0,0.0,0.0,0.0,0.0,0.0,0.0,1,Lying,4
2019-01-17,11:48:33,-4.95,-0.09,8.0,0.0,0.0,0.0,0.0,0.0,0.0,1,Lying,4
2019-01-17,11:48:33,-4.91,-0.03999999,7.95,0.0,0.0,0.0,0.0,0.0,0.0,1,Lying,4
2019-01-17,11:48:33,-4.91,-0.03999999,7.95,0.0,0.0,0.0,0.0,0.0,0.0,1,Lying,4
2019-01-17,11:48:33,-4.9399996,-0.060000002000000004,7.95,0.0,0.0,0.0,0.0,0.0,0.0,1,Lying,4
2019-01-17,11:48:33,-4.9399996,-0.060000002000000004,7.95,0.0,0.0,0.0,0.0,0.0,0.0,1,Lying,4
2019-01-17,11:48:33,-4.91,-0.120000005,7.99,0.0,0.0,0.0,0.0,0.0,0.0,1,Lying,4
2019-01-17,11:48:33,-4.91,-0.120000005,7.99,0.0,0.0,0.0,0.0,0.0,0.0,1,Lying,4
2019-01-17,11:48:33,-4.9399996,-0.03999999,8.009999,0.01,0.0,0.01,0.01,0.0,0.01,1,Lying,4
2019-01-17,11:48:33,-4.9399996,-0.03999999,8.009999,0.01,0.0,0.01,0.01,0.0,0.01,1,Lying,4
2019-01-17,11:48:33,-4.9399996,-0.07999998,8.03,0.01,0.0,0.01,0.01,0.0,0.01,1,Lying,4
2019-01-17,11:48:33,-4.9399996,-0.07999998,8.03,0.0,-0.01,0.0,0.0,-0.01,0.0,1,Lying,4
2019-01-17,11:48:33,-4.9199996,-0.07999998,7.9699993000000005,0.0,-0.01,0.0,0.0,-0.01,0.0,1,Lying,4
2019-01-17,11:48:33,-4.9199996,-0.07999998,7.9699993000000005,0.0,0.0,0.0,0.0,0.0,0.0,1,Lying,4
2019-01-17,11:48:33,-4.9399996,-0.049999982000000005,7.91,0.0,0.0,0.0,0.0,0.0,0.0,1,Lying,4
2019-01-17,11:48:33,-4.9399996,-0.049999982000000005,7.91,0.0,0.0,0.0,0.0,0.0,0.0,1,Lying,4
2019-01-17,11:48:33,-4.8799996,-0.07999998,8.019999499999999,0.0,0.0,0.0,0.0,0.0,0.0,1,Lying,4
2019-01-17,11:48:33,-4.8799996,-0.07999998,8.019999499999999,0.0,0.0,0.0,0.0,0.0,0.0,1,Lying,4
2019-01-17,11:48:33,-4.97,-0.06999999,8.0,0.0,0.0,0.0,0.0,0.0,0.0,1,Lying,4
2019-01-17,11:48:33,-4.97,-0.06999999,8.0,0.0,0.0,0.0,0.0,0.0,0.0,1,Lying,4
2019-01-17,11:48:33,-4.8999996,-0.09,8.08,0.0,0.0,0.0,0.0,0.0,0.0,1,Lying,4
2019-01-17,11:48:33,-4.8999996,-0.09,8.08,0.0,-0.01,0.0,0.0,-0.01,0.0,1,Lying,4
2019-01-17,11:48:33,-4.93,-0.030000001000000002,7.9399996,0.0,-0.01,0.0,0.0,-0.01,0.0,1,Lying,4
2019-01-17,11:48:33,-4.93,-0.030000001000000002,7.9399996,0.0,0.0,0.01,0.0,0.0,0.01,1,Lying,4
2019-01-17,11:48:33,-4.8999996,-0.030000001000000002,8.0,0.0,0.0,0.01,0.0,0.0,0.01,1,Lying,4
2019-01-17,11:48:33,-4.8999996,-0.030000001000000002,8.0,0.0,0.0,0.01,0.0,0.0,0.01,1,Lying,4
2019-01-17,11:48:33,-4.91,-0.060000002000000004,8.0,0.0,0.0,0.01,0.0,0.0,0.01,1,Lying,4
2019-01-17,11:48:33,-4.91,-0.060000002000000004,8.0,0.0,0.0,0.0,0.0,0.0,0.0,1,Lying,4
2019-01-17,11:48:33,-5.0599995,-0.13,7.849999400000001,0.0,0.02,0.0,0.0,0.02,0.0,1,Lying,4
2019-01-17,11:48:33,-5.0599995,-0.13,7.849999400000001,0.0,0.02,0.0,0.0,0.02,0.0,1,Lying,4
2019-01-17,11:48:33,-4.8199997,-0.07999998,8.059999000000001,0.0,0.02,0.0,0.0,0.02,0.0,1,Lying,4
2019-01-17,11:48:33,-4.8199997,-0.07999998,8.059999000000001,0.0,-0.02,0.02,0.0,-0.02,0.02,1,Lying,4
2019-01-17,11:48:33,-4.93,-0.03999999,7.95,0.0,-0.02,0.02,0.0,-0.02,0.02,1,Lying,4
2019-01-17,11:48:33,-4.93,-0.03999999,7.95,0.0,0.01,0.01,0.0,0.01,0.01,1,Lying,4
2019-01-17,11:48:34,-4.9799995,-0.060000002000000004,7.95,0.0,0.01,0.01,0.0,0.01,0.01,1,Lying,4
2019-01-17,11:48:34,-4.9799995,-0.060000002000000004,7.95,0.0,0.0,0.0,0.0,0.0,0.0,1,Lying,4
2019-01-17,11:48:34,-4.8999996,-0.07999998,7.99,0.0,0.0,0.0,0.0,0.0,0.0,1,Lying,4
2019-01-17,11:48:34,-4.8999996,-0.07999998,7.99,0.0,-0.02,0.0,0.0,-0.02,0.0,1,Lying,4
2019-01-17,11:48:34,-4.9799995,-0.030000001000000002,7.8999996,0.0,-0.02,0.0,0.0,-0.02,0.0,1,Lying,4
2019-01-17,11:48:34,-4.9799995,-0.030000001000000002,7.8999996,0.0,0.0,0.0,0.0,0.0,0.0,1,Lying,4
2019-01-17,11:48:34,-4.9799995,-0.09999999400000001,7.9699993000000005,0.0,0.0,0.0,0.0,0.0,0.0,1,Lying,4
2019-01-17,11:48:34,-4.9799995,-0.09999999400000001,7.9699993000000005,0.0,-0.02,0.0,0.0,-0.02,0.0,1,Lying,4
2019-01-17,11:48:34,-4.93,-0.06999999,7.9699993000000005,0.0,-0.02,0.0,0.0,-0.02,0.0,1,Lying,4
2019-01-17,11:48:34,-4.93,-0.06999999,7.9699993000000005,0.0,-0.04,0.0,0.0,-0.04,0.0,1,Lying,4
2019-01-17,11:48:34,-5.0299997,-0.03999999,7.8799996,0.0,-0.04,0.0,0.0,-0.04,0.0,1,Lying,4
2019-01-17,11:48:34,-5.0299997,-0.03999999,7.8799996,0.0,-0.03,0.0,0.0,-0.03,0.0,1,Lying,4
2019-01-17,11:48:34,-4.7299995,-0.109999985,8.03,0.0,-0.03,0.0,0.0,-0.03,0.0,1,Lying,4
2019-01-17,11:48:34,-4.7299995,-0.109999985,8.03,0.0,-0.07,0.0,0.0,-0.07,0.0,1,Lying,4
2019-01-17,11:48:34,-4.7599998,-0.060000002000000004,8.099999,0.0,-0.07,0.0,0.0,-0.07,0.0,1,Lying,4
2019-01-17,11:48:34,-4.7599998,-0.060000002000000004,8.099999,0.0,-0.04,0.01,0.0,-0.04,0.01,1,Lying,4
2019-01-17,11:48:34,-4.85,-0.09,8.04,0.0,-0.04,0.01,0.0,-0.04,0.01,1,Lying,4
2019-01-17,11:48:34,-4.85,-0.09,8.04,0.0,0.0,0.0,0.0,0.0,0.0,1,Lying,4
2019-01-17,11:48:34,-4.91,-0.049999982000000005,7.8599997,0.0,0.0,0.0,0.0,0.0,0.0,1,Lying,4
2019-01-17,11:48:34,-4.91,-0.049999982000000005,7.8599997,0.01,0.03,0.01,0.01,0.03,0.01,1,Lying,4
2019-01-17,11:48:34,-4.9199996,-0.06999999,7.8799996,0.01,0.03,0.01,0.01,0.03,0.01,1,Lying,4
2019-01-17,11:48:34,-4.9199996,-0.06999999,7.8799996,0.0,0.0,0.0,0.0,0.0,0.0,1,Lying,4
2019-01-17,11:48:34,-4.87,-0.07999998,8.08,0.0,0.0,0.0,0.0,0.0,0.0,1,Lying,4
2019-01-17,11:48:34,-4.87,-0.07999998,8.08,0.0,-0.02,0.01,0.0,-0.02,0.01,1,Lying,4
2019-01-17,11:48:34,-4.8799996,-0.049999982000000005,7.95,0.0,-0.02,0.01,0.0,-0.02,0.01,1,Lying,4
2019-01-17,11:48:34,-4.8799996,-0.049999982000000005,7.95,0.0,0.0,0.01,0.0,0.0,0.01,1,Lying,4
2019-01-17,11:48:34,-4.8599997,-0.07999998,7.9799995,0.0,0.0,0.01,0.0,0.0,0.01,1,Lying,4
2019-01-17,11:48:34,-4.8599997,-0.07999998,7.9799995,0.0,0.0,0.0,0.0,0.0,0.0,1,Lying,4
2019-01-17,11:48:34,-4.93,-0.049999982000000005,7.9799995,0.0,0.0,0.0,0.0,0.0,0.0,1,Lying,4
2019-01-17,11:48:34,-4.93,-0.049999982000000005,7.9799995,0.0,0.0,0.0,0.0,0.0,0.0,1,Lying,4
2019-01-17,11:48:34,-4.85,-0.06999999,7.9399996,0.0,0.0,0.0,0.0,0.0,0.0,1,Lying,4
2019-01-17,11:48:34,-4.85,-0.06999999,7.9399996,0.0,0.0,0.01,0.0,0.0,0.01,1,Lying,4
2019-01-17,11:48:34,-4.9599996,-0.13,7.9799995,0.0,0.0,0.01,0.0,0.0,0.01,1,Lying,4
2019-01-17,11:48:34,-4.9599996,-0.13,7.9799995,0.0,0.0,0.0,0.0,0.0,0.0,1,Lying,4
2019-01-17,11:48:34,-4.87,-0.06999999,8.049999,0.0,0.0,0.0,0.0,0.0,0.0,1,Lying,4
2019-01-17,11:48:34,-4.87,-0.06999999,8.049999,0.0,0.0,0.01,0.0,0.0,0.01,1,Lying,4
2019-01-17,11:48:34,-4.91,-0.049999982000000005,7.9199996,0.0,0.0,0.01,0.0,0.0,0.01,1,Lying,4
2019-01-17,11:48:34,-4.91,-0.049999982000000005,7.9199996,0.01,0.01,0.0,0.01,0.01,0.0,1,Lying,4
2019-01-17,11:48:34,-4.8999996,-0.06999999,8.04,0.01,0.01,0.0,0.01,0.01,0.0,1,Lying,4
2019-01-17,11:48:34,-4.8999996,-0.06999999,8.04,0.0,0.01,0.0,0.0,0.01,0.0,1,Lying,4
2019-01-17,11:48:34,-4.95,-0.049999982000000005,7.93,0.0,0.01,0.0,0.0,0.01,0.0,1,Lying,4
2019-01-17,11:48:34,-4.95,-0.049999982000000005,7.93,0.0,0.01,0.0,0.0,0.01,0.0,1,Lying,4
2019-01-17,11:48:34,-4.9399996,-0.09,7.95,0.0,0.01,0.0,0.0,0.01,0.0,1,Lying,4
2019-01-17,11:48:34,-4.9399996,-0.09,7.95,0.0,0.0,0.0,0.0,0.0,0.0,1,Lying,4
2019-01-17,11:48:34,-4.93,-0.00999999,7.9799995,0.0,0.0,0.0,0.0,0.0,0.0,1,Lying,4
2019-01-17,11:48:34,-4.93,-0.00999999,7.9799995,0.0,0.0,0.01,0.0,0.0,0.01,1,Lying,4
2019-01-17,11:48:35,-4.9399996,-0.09,7.96,0.0,0.0,0.01,0.0,0.0,0.01,1,Lying,4
