date,time,accX,accY,accZ,gyroX,gyroY,gyroZ,magX,magY,magZ,Trial,activity,activity_number
2019-01-20,16:24:09,8.719999000000001,-1.3599999,1.19,-0.39999998,0.78,0.24,-0.39999998,0.78,0.24,1,Lying,4
2019-01-20,16:24:09,9.769999499999999,-1.42,1.9,-0.39999998,0.78,0.24,-0.39999998,0.78,0.24,1,Lying,4
2019-01-20,16:24:09,9.769999499999999,-1.42,1.9,-0.35,0.09999999400000001,0.19999999,-0.35,0.09999999400000001,0.19999999,1,Lying,4
2019-01-20,16:24:09,9.91,-1.03,1.53,-0.35,0.09999999400000001,0.19999999,-0.35,0.09999999400000001,0.19999999,1,Lying,4
2019-01-20,16:24:09,9.91,-1.03,1.53,-0.13,0.07,0.11,-0.13,0.07,0.11,1,Lying,4
2019-01-20,16:24:09,9.929999,-0.71999997,1.37,-0.13,0.07,0.11,-0.13,0.07,0.11,1,Lying,4
2019-01-20,16:24:10,9.929999,-0.71999997,1.37,-0.06,0.11,0.09999999400000001,-0.06,0.11,0.09999999400000001,1,Lying,4
2019-01-20,16:24:10,9.73,-0.44,1.25,-0.06,0.11,0.09999999400000001,-0.06,0.11,0.09999999400000001,1,Lying,4
2019-01-20,16:24:10,9.73,-0.44,1.25,-0.01,0.32,0.09999999400000001,-0.01,0.32,0.09999999400000001,1,Lying,4
2019-01-20,16:24:10,9.339999,-0.77,1.8,-0.01,0.32,0.09999999400000001,-0.01,0.32,0.09999999400000001,1,Lying,4
2019-01-20,16:24:10,9.339999,-0.77,1.8,0.049999997000000004,0.45999998,0.0,0.049999997000000004,0.45999998,0.0,1,Lying,4
2019-01-20,16:24:10,9.24,-0.99,1.92,0.049999997000000004,0.45999998,0.0,0.049999997000000004,0.45999998,0.0,1,Lying,4
2019-01-20,16:24:10,9.24,-0.99,1.92,0.03,0.59999996,0.0,0.03,0.59999996,0.0,1,Lying,4
2019-01-20,16:24:10,9.94,-1.27,2.45,0.03,0.59999996,0.0,0.03,0.59999996,0.0,1,Lying,4
2019-01-20,16:24:10,9.94,-1.27,2.45,-0.03,0.13,-0.01,-0.03,0.13,-0.01,1,Lying,4
2019-01-20,16:24:10,9.419999,-1.14,2.06,-0.03,0.13,-0.01,-0.03,0.13,-0.01,1,Lying,4
2019-01-20,16:24:10,9.419999,-1.14,2.06,-0.02,0.37,-0.01,-0.02,0.37,-0.01,1,Lying,4
2019-01-20,16:24:10,8.95,-1.02,1.5600001000000001,-0.02,0.37,-0.01,-0.02,0.37,-0.01,1,Lying,4
2019-01-20,16:24:10,8.95,-1.02,1.5600001000000001,-0.01,0.41,0.02,-0.01,0.41,0.02,1,Lying,4
2019-01-20,16:24:10,8.94,-0.91999996,1.57,-0.01,0.41,0.02,-0.01,0.41,0.02,1,Lying,4
2019-01-20,16:24:10,8.94,-0.91999996,1.57,0.0,0.04,0.0,0.0,0.04,0.0,1,Lying,4
2019-01-20,16:24:10,9.33,-0.87,1.89,0.0,0.04,0.0,0.0,0.04,0.0,1,Lying,4
2019-01-20,16:24:10,9.33,-0.87,1.89,0.03,-0.31,-0.06,0.03,-0.31,-0.06,1,Lying,4
2019-01-20,16:24:10,9.809999000000001,-0.80999994,1.93,0.03,-0.31,-0.06,0.03,-0.31,-0.06,1,Lying,4
2019-01-20,16:24:10,9.809999000000001,-0.80999994,1.93,0.09999999400000001,-0.31,-0.049999997000000004,0.09999999400000001,-0.31,-0.049999997000000004,1,Lying,4
2019-01-20,16:24:10,9.9,-0.77,1.6800001,0.09999999400000001,-0.31,-0.049999997000000004,0.09999999400000001,-0.31,-0.049999997000000004,1,Lying,4
2019-01-20,16:24:10,9.9,-0.77,1.6800001,0.04,-0.19,-0.03,0.04,-0.19,-0.03,1,Lying,4
2019-01-20,16:24:10,9.7,-0.88,1.66,0.04,-0.19,-0.03,0.04,-0.19,-0.03,1,Lying,4
2019-01-20,16:24:10,9.7,-0.88,1.66,0.02,-0.12,-0.049999997000000004,0.02,-0.12,-0.049999997000000004,1,Lying,4
2019-01-20,16:24:10,9.639999000000001,-1.03,1.66,0.02,-0.12,-0.049999997000000004,0.02,-0.12,-0.049999997000000004,1,Lying,4
2019-01-20,16:24:10,9.639999000000001,-1.03,1.66,0.0,0.0,-0.04,0.0,0.0,-0.04,1,Lying,4
2019-01-20,16:24:10,9.209999,-0.99,1.54,0.0,0.0,-0.04,0.0,0.0,-0.04,1,Lying,4
2019-01-20,16:24:10,9.209999,-0.99,1.54,0.0,-0.04,-0.01,0.0,-0.04,-0.01,1,Lying,4
2019-01-20,16:24:10,9.429999,-0.86,1.84,0.0,-0.04,-0.01,0.0,-0.04,-0.01,1,Lying,4
2019-01-20,16:24:10,9.429999,-0.86,1.84,0.02,-0.08,-0.02,0.02,-0.08,-0.02,1,Lying,4
2019-01-20,16:24:10,9.33,-0.90999997,1.75,0.02,-0.08,-0.02,0.02,-0.08,-0.02,1,Lying,4
2019-01-20,16:24:10,9.33,-0.90999997,1.75,0.01,-0.04,0.0,0.01,-0.04,0.0,1,Lying,4
2019-01-20,16:24:10,9.549999,-0.84999996,1.64,0.01,-0.04,0.0,0.01,-0.04,0.0,1,Lying,4
2019-01-20,16:24:10,9.549999,-0.84999996,1.64,-0.02,-0.13,0.03,-0.02,-0.13,0.03,1,Lying,4
2019-01-20,16:24:10,9.37,-0.59999996,1.35,-0.02,-0.13,0.03,-0.02,-0.13,0.03,1,Lying,4
2019-01-20,16:24:10,9.37,-0.59999996,1.35,-0.02,-0.16,0.03,-0.02,-0.16,0.03,1,Lying,4
2019-01-20,16:24:10,9.669999,-0.69,1.4,-0.02,-0.16,0.03,-0.02,-0.16,0.03,1,Lying,4
2019-01-20,16:24:10,9.669999,-0.69,1.4,-0.07,-0.17,0.02,-0.07,-0.17,0.02,1,Lying,4
2019-01-20,16:24:10,9.759999,-0.72999996,1.37,-0.07,-0.17,0.02,-0.07,-0.17,0.02,1,Lying,4
2019-01-20,16:24:10,9.759999,-0.72999996,1.37,-0.08,-0.17999999,0.0,-0.08,-0.17999999,0.0,1,Lying,4
2019-01-20,16:24:10,9.74,-0.88,1.2,-0.08,-0.17999999,0.0,-0.08,-0.17999999,0.0,1,Lying,4
2019-01-20,16:24:10,9.74,-0.88,1.2,-0.08,-0.13,-0.02,-0.08,-0.13,-0.02,1,Lying,4
2019-01-20,16:24:10,9.66,-0.90999997,1.0400001,-0.08,-0.13,-0.02,-0.08,-0.13,-0.02,1,Lying,4
2019-01-20,16:24:10,9.66,-0.90999997,1.0400001,-0.049999997000000004,-0.01,0.0,-0.049999997000000004,-0.01,0.0,1,Lying,4
2019-01-20,16:24:10,9.589999,-0.87,1.13,-0.049999997000000004,-0.01,0.0,-0.049999997000000004,-0.01,0.0,1,Lying,4
2019-01-20,16:24:10,9.589999,-0.87,1.13,-0.03,-0.04,-0.01,-0.03,-0.04,-0.01,1,Lying,4
2019-01-20,16:24:11,9.589999,-0.90999997,1.14,-0.03,-0.04,-0.01,-0.03,-0.04,-0.01,1,Lying,4
2019-01-20,16:24:11,9.589999,-0.90999997,1.14,0.0,-0.07,-0.01,0.0,-0.07,-0.01,1,Lying,4
2019-01-20,16:24:11,9.74,-0.93999994,1.25,0.0,-0.07,-0.01,0.0,-0.07,-0.01,1,Lying,4
2019-01-20,16:24:11,9.74,-0.93999994,1.25,0.0,-0.07,-0.01,0.0,-0.07,-0.01,1,Lying,4
2019-01-20,16:24:11,9.639999000000001,-0.93999994,1.0600001000000001,0.0,-0.07,-0.01,0.0,-0.07,-0.01,1,Lying,4
2019-01-20,16:24:11,9.639999000000001,-0.93999994,1.0600001000000001,0.01,-0.08,-0.02,0.01,-0.08,-0.02,1,Lying,4
2019-01-20,16:24:11,9.57,-0.97999996,1.13,0.01,-0.08,-0.02,0.01,-0.08,-0.02,1,Lying,4
2019-01-20,16:24:11,9.57,-0.97999996,1.13,0.02,-0.22999999,-0.04,0.02,-0.22999999,-0.04,1,Lying,4
2019-01-20,16:24:11,9.509999,-0.92999995,0.96,0.02,-0.22999999,-0.04,0.02,-0.22999999,-0.04,1,Lying,4
2019-01-20,16:24:11,9.509999,-0.92999995,0.96,0.049999997000000004,-0.74,-0.12,0.049999997000000004,-0.74,-0.12,1,Lying,4
2019-01-20,16:24:11,9.87,-0.83,0.86999995,0.049999997000000004,-0.74,-0.12,0.049999997000000004,-0.74,-0.12,1,Lying,4
2019-01-20,16:24:11,9.87,-0.83,0.86999995,0.049999997000000004,-1.0799999,-0.16,0.049999997000000004,-1.0799999,-0.16,1,Lying,4
2019-01-20,16:24:11,10.169999,-0.79999995,1.02,0.049999997000000004,-1.0799999,-0.16,0.049999997000000004,-1.0799999,-0.16,1,Lying,4
2019-01-20,16:24:11,10.169999,-0.79999995,1.02,0.26999998,-0.98999995,-0.21,0.26999998,-0.98999995,-0.21,1,Lying,4
2019-01-20,16:24:11,9.48,-0.46999997,0.049999993,0.26999998,-0.98999995,-0.21,0.26999998,-0.98999995,-0.21,1,Lying,4
2019-01-20,16:24:11,9.48,-0.46999997,0.049999993,0.53999996,-0.44,-0.19,0.53999996,-0.44,-0.19,1,Lying,4
2019-01-20,16:24:11,9.349999,-0.22999999,-1.2299999,0.65,-0.39999998,-0.17,0.65,-0.39999998,-0.17,1,Lying,4
2019-01-20,16:24:11,9.349999,-0.22999999,-1.2299999,0.65,-0.39999998,-0.17,0.65,-0.39999998,-0.17,1,Lying,4
2019-01-20,16:24:11,9.429999,-0.17999998,-1.9399998999999999,0.65,-0.39999998,-0.17,0.65,-0.39999998,-0.17,1,Lying,4
2019-01-20,16:24:11,9.429999,-0.17999998,-1.9399998999999999,0.59,-0.57,-0.22,0.59,-0.57,-0.22,1,Lying,4
2019-01-20,16:24:11,9.69,-0.16999999,-2.31,0.59,-0.57,-0.22,0.59,-0.57,-0.22,1,Lying,4
2019-01-20,16:24:11,9.69,-0.16999999,-2.31,0.52,-0.72999996,-0.21,0.52,-0.72999996,-0.21,1,Lying,4
2019-01-20,16:24:11,9.889999000000001,0.09000003,-2.3999999,0.52,-0.72999996,-0.21,0.52,-0.72999996,-0.21,1,Lying,4
2019-01-20,16:24:11,9.889999000000001,0.09000003,-2.3999999,0.35999998,-0.62,-0.14999999,0.35999998,-0.62,-0.14999999,1,Lying,4
2019-01-20,16:24:11,9.66,0.06999999,-2.4799998,0.14999999,-0.28,-0.11,0.14999999,-0.28,-0.11,1,Lying,4
2019-01-20,16:24:11,9.66,0.06999999,-2.4799998,0.14999999,-0.28,-0.11,0.14999999,-0.28,-0.11,1,Lying,4
2019-01-20,16:24:11,9.49,0.060000002000000004,-2.51,0.14999999,-0.28,-0.11,0.14999999,-0.28,-0.11,1,Lying,4
2019-01-20,16:24:11,9.49,0.060000002000000004,-2.51,0.07,0.01,-0.07,0.07,0.01,-0.07,1,Lying,4
2019-01-20,16:24:11,9.349999,0.13,-2.4199998,0.07,0.01,-0.07,0.07,0.01,-0.07,1,Lying,4
2019-01-20,16:24:11,9.349999,0.13,-2.4199998,-0.01,-0.03,-0.04,-0.01,-0.03,-0.04,1,Lying,4
2019-01-20,16:24:11,9.419999,0.04000002,-2.29,-0.01,-0.03,-0.04,-0.01,-0.03,-0.04,1,Lying,4
2019-01-20,16:24:11,9.419999,0.04000002,-2.29,-0.07,-0.07,-0.02,-0.07,-0.07,-0.02,1,Lying,4
2019-01-20,16:24:11,9.45,0.050000012,-2.1399999,-0.07,-0.07,-0.02,-0.07,-0.07,-0.02,1,Lying,4
2019-01-20,16:24:11,9.45,0.050000012,-2.1399999,-0.07,-0.03,0.02,-0.07,-0.03,0.02,1,Lying,4
2019-01-20,16:24:11,9.589999,0.060000002000000004,-1.9699999,-0.07,-0.03,0.02,-0.07,-0.03,0.02,1,Lying,4
2019-01-20,16:24:11,9.589999,0.060000002000000004,-1.9699999,-0.089999996,0.049999997000000004,0.089999996,-0.089999996,0.049999997000000004,0.089999996,1,Lying,4
2019-01-20,16:24:11,9.78,-0.09,-1.8599999,-0.089999996,0.02,0.089999996,-0.089999996,0.02,0.089999996,1,Lying,4
2019-01-20,16:24:11,9.78,-0.09,-1.8599999,-0.089999996,0.02,0.089999996,-0.089999996,0.02,0.089999996,1,Lying,4
2019-01-20,16:24:11,9.759999,-0.13999999,-1.8899999,-0.089999996,0.02,0.089999996,-0.089999996,0.02,0.089999996,1,Lying,4
2019-01-20,16:24:11,9.759999,-0.13999999,-1.8899999,-0.11,-0.02,0.06,-0.11,-0.02,0.06,1,Lying,4
2019-01-20,16:24:11,9.559999000000001,-0.29999998,-1.8699999,-0.11,-0.02,0.06,-0.11,-0.02,0.06,1,Lying,4
2019-01-20,16:24:11,9.559999000000001,-0.29999998,-1.8699999,-0.12,0.0,0.03,-0.12,0.0,0.03,1,Lying,4
2019-01-20,16:24:11,9.73,-0.26999998,-1.78,-0.12,0.0,0.03,-0.12,0.0,0.03,1,Lying,4
2019-01-20,16:24:12,9.73,-0.26999998,-1.78,-0.12,0.0,0.07,-0.12,0.0,0.07,1,Lying,4
2019-01-20,16:24:12,9.83,-0.26,-1.6199999,-0.12,0.0,0.07,-0.12,0.0,0.07,1,Lying,4
2019-01-20,16:24:12,9.83,-0.26,-1.6199999,-0.11,0.04,0.07,-0.11,0.04,0.07,1,Lying,4
2019-01-20,16:24:12,9.73,-0.22999999,-1.6099999,-0.11,0.04,0.07,-0.11,0.04,0.07,1,Lying,4
2019-01-20,16:24:12,9.73,-0.22999999,-1.6099999,-0.08,0.11,0.06,-0.08,0.11,0.06,1,Lying,4
2019-01-20,16:24:12,9.78,-0.45,-1.56,-0.08,0.11,0.06,-0.08,0.11,0.06,1,Lying,4
2019-01-20,16:24:12,9.78,-0.45,-1.56,-0.07,0.16,0.07,-0.07,0.16,0.07,1,Lying,4
2019-01-20,16:24:12,9.879999,-0.32999998,-1.53,-0.07,0.16,0.07,-0.07,0.16,0.07,1,Lying,4
2019-01-20,16:24:12,9.879999,-0.32999998,-1.53,0.049999997000000004,-0.06,0.0,0.049999997000000004,-0.06,0.0,1,Lying,4
2019-01-20,16:24:12,9.66,-0.23999998,-1.93,0.049999997000000004,-0.06,0.0,0.049999997000000004,-0.06,0.0,1,Lying,4
2019-01-20,16:24:12,9.66,-0.23999998,-1.93,0.07,-0.03,-0.01,0.07,-0.03,-0.01,1,Lying,4
2019-01-20,16:24:12,9.599999,-0.35999998,-1.6999999,0.07,-0.03,-0.01,0.07,-0.03,-0.01,1,Lying,4
2019-01-20,16:24:12,9.599999,-0.35999998,-1.6999999,0.0,0.0,0.0,0.0,0.0,0.0,1,Lying,4
2019-01-20,16:24:12,9.57,-0.25,-1.7199999,0.0,0.0,0.0,0.0,0.0,0.0,1,Lying,4
2019-01-20,16:24:12,9.57,-0.25,-1.7199999,0.03,0.06,0.01,0.03,0.06,0.01,1,Lying,4
2019-01-20,16:24:12,9.719999000000001,-0.13999999,-1.6999999,0.03,0.06,0.01,0.03,0.06,0.01,1,Lying,4
2019-01-20,16:24:12,9.719999000000001,-0.13999999,-1.6999999,0.02,0.0,0.01,0.02,0.0,0.01,1,Lying,4
2019-01-20,16:24:12,9.54,-0.16999999,-1.9699999,0.02,0.0,0.01,0.02,0.0,0.01,1,Lying,4
2019-01-20,16:24:12,9.54,-0.16999999,-1.9699999,0.02,0.01,-0.01,0.02,0.01,-0.01,1,Lying,4
2019-01-20,16:24:12,9.299999,-0.14999998,-2.36,0.02,0.01,-0.01,0.02,0.01,-0.01,1,Lying,4
2019-01-20,16:24:12,9.299999,-0.14999998,-2.36,0.04,-0.11,-0.03,0.04,-0.11,-0.03,1,Lying,4
2019-01-20,16:24:12,9.74,-0.42999998,-1.9499999,0.049999997000000004,-0.55,-0.06,0.049999997000000004,-0.55,-0.06,1,Lying,4
2019-01-20,16:24:12,9.74,-0.42999998,-1.9499999,0.049999997000000004,-0.55,-0.06,0.049999997000000004,-0.55,-0.06,1,Lying,4
2019-01-20,16:24:12,10.78,-0.78999996,-0.88,0.049999997000000004,-0.55,-0.06,0.049999997000000004,-0.55,-0.06,1,Lying,4
2019-01-20,16:24:12,10.78,-0.78999996,-0.88,-0.04,-0.45999998,0.02,-0.04,-0.45999998,0.02,1,Lying,4
2019-01-20,16:24:12,9.87,-0.49999997,-1.79,-0.04,-0.45999998,0.02,-0.04,-0.45999998,0.02,1,Lying,4
2019-01-20,16:24:12,9.87,-0.49999997,-1.79,0.06,0.29999998,0.049999997000000004,0.06,0.29999998,0.049999997000000004,1,Lying,4
2019-01-20,16:24:12,9.53,-0.39,-2.3,0.06,0.29999998,0.049999997000000004,0.06,0.29999998,0.049999997000000004,1,Lying,4
2019-01-20,16:24:12,9.53,-0.39,-2.3,0.12,0.08,0.0,0.12,0.08,0.0,1,Lying,4
2019-01-20,16:24:12,9.44,-0.22,-2.52,0.12,0.08,0.0,0.12,0.08,0.0,1,Lying,4
2019-01-20,16:24:12,9.44,-0.22,-2.52,0.09999999400000001,0.049999997000000004,-0.01,0.09999999400000001,0.049999997000000004,-0.01,1,Lying,4
2019-01-20,16:24:12,9.62,-0.120000005,-2.31,0.09999999400000001,0.049999997000000004,-0.01,0.09999999400000001,0.049999997000000004,-0.01,1,Lying,4
2019-01-20,16:24:12,9.62,-0.120000005,-2.31,0.03,-0.04,0.0,0.03,-0.04,0.0,1,Lying,4
2019-01-20,16:24:12,9.87,-0.120000005,-2.24,0.03,-0.04,0.0,0.03,-0.04,0.0,1,Lying,4
2019-01-20,16:24:12,9.87,-0.120000005,-2.24,-0.04,0.02,0.04,-0.04,0.02,0.04,1,Lying,4
2019-01-20,16:24:12,9.669999,-0.31,-2.25,-0.04,0.02,0.04,-0.04,0.02,0.04,1,Lying,4
2019-01-20,16:24:12,9.669999,-0.31,-2.25,-0.06,0.14,0.02,-0.06,0.14,0.02,1,Lying,4
2019-01-20,16:24:12,9.66,-0.35999998,-2.1999998,-0.06,0.14,0.02,-0.06,0.14,0.02,1,Lying,4
2019-01-20,16:24:12,9.66,-0.35999998,-2.1999998,-0.04,0.07,0.0,-0.04,0.07,0.0,1,Lying,4
2019-01-20,16:24:12,9.65,-0.42,-2.06,-0.04,0.07,0.0,-0.04,0.07,0.0,1,Lying,4
2019-01-20,16:24:12,9.65,-0.42,-2.06,0.0,0.09999999400000001,0.01,0.0,0.09999999400000001,0.01,1,Lying,4
2019-01-20,16:24:12,9.769999499999999,-0.37,-1.8199999,0.0,0.09999999400000001,0.01,0.0,0.09999999400000001,0.01,1,Lying,4
2019-01-20,16:24:12,9.769999499999999,-0.37,-1.8199999,0.0,0.07,0.01,0.0,0.07,0.01,1,Lying,4
2019-01-20,16:24:12,9.57,-0.32999998,-1.7299999,0.0,0.07,0.01,0.0,0.07,0.01,1,Lying,4
2019-01-20,16:24:12,9.57,-0.32999998,-1.7299999,0.0,0.07,0.01,0.0,0.07,0.01,1,Lying,4
2019-01-20,16:24:13,9.69,-0.32,-2.06,0.0,0.07,0.01,0.0,0.07,0.01,1,Lying,4
2019-01-20,16:24:13,9.69,-0.32,-2.06,-0.04,0.07,0.01,-0.04,0.07,0.01,1,Lying,4
2019-01-20,16:24:13,9.62,-0.32999998,-1.92,-0.04,0.07,0.01,-0.04,0.07,0.01,1,Lying,4
2019-01-20,16:24:13,9.62,-0.32999998,-1.92,-0.02,0.09999999400000001,0.03,-0.02,0.09999999400000001,0.03,1,Lying,4
2019-01-20,16:24:13,9.54,-0.34999996,-2.07,-0.02,0.09999999400000001,0.03,-0.02,0.09999999400000001,0.03,1,Lying,4
2019-01-20,16:24:13,9.54,-0.34999996,-2.07,0.01,0.049999997000000004,0.02,0.01,0.049999997000000004,0.02,1,Lying,4
2019-01-20,16:24:13,9.61,-0.22999999,-2.02,0.01,0.049999997000000004,0.02,0.01,0.049999997000000004,0.02,1,Lying,4
2019-01-20,16:24:13,9.61,-0.22999999,-2.02,0.02,0.02,0.03,0.02,0.02,0.03,1,Lying,4
2019-01-20,16:24:13,9.58,-0.22999999,-2.09,0.02,0.02,0.03,0.02,0.02,0.03,1,Lying,4
2019-01-20,16:24:13,9.58,-0.22999999,-2.09,0.01,-0.01,0.01,0.01,-0.01,0.01,1,Lying,4
2019-01-20,16:24:13,9.839999,-0.33999997,-1.8599999,0.01,-0.01,0.01,0.01,-0.01,0.01,1,Lying,4
2019-01-20,16:24:13,9.839999,-0.33999997,-1.8599999,0.0,-0.07,0.0,0.0,-0.07,0.0,1,Lying,4
2019-01-20,16:24:13,9.809999000000001,-0.45,-1.81,0.0,-0.07,0.0,0.0,-0.07,0.0,1,Lying,4
2019-01-20,16:24:13,9.809999000000001,-0.45,-1.81,-0.01,0.01,0.02,-0.01,0.01,0.02,1,Lying,4
2019-01-20,16:24:13,9.62,-0.45,-1.8899999,-0.01,0.01,0.02,-0.01,0.01,0.02,1,Lying,4
2019-01-20,16:24:13,9.62,-0.45,-1.8899999,0.01,0.07,0.0,0.01,0.07,0.0,1,Lying,4
2019-01-20,16:24:13,9.69,-0.40999997,-1.8999999,0.01,0.07,0.0,0.01,0.07,0.0,1,Lying,4
2019-01-20,16:24:13,9.69,-0.40999997,-1.8999999,0.0,0.04,0.0,0.0,0.04,0.0,1,Lying,4
2019-01-20,16:24:13,9.7,-0.54999995,-1.8599999,-0.01,0.0,-0.01,-0.01,0.0,-0.01,1,Lying,4
2019-01-20,16:24:13,9.7,-0.54999995,-1.8599999,-0.01,0.0,-0.01,-0.01,0.0,-0.01,1,Lying,4
2019-01-20,16:24:13,10.08,-0.52,-1.8899999,-0.01,0.0,-0.01,-0.01,0.0,-0.01,1,Lying,4
2019-01-20,16:24:13,10.08,-0.52,-1.8899999,0.0,0.0,-0.02,0.0,0.0,-0.02,1,Lying,4
2019-01-20,16:24:13,10.599999,-0.58,-1.6399999,0.0,0.0,-0.02,0.0,0.0,-0.02,1,Lying,4
2019-01-20,16:24:13,10.599999,-0.58,-1.6399999,0.0,0.06,-0.11,0.0,0.06,-0.11,1,Lying,4
2019-01-20,16:24:13,10.33,-0.19999999,-1.91,0.0,0.06,-0.11,0.0,0.06,-0.11,1,Lying,4
2019-01-20,16:24:13,10.33,-0.19999999,-1.91,0.03,0.16,-0.26999998,0.03,0.16,-0.26999998,1,Lying,4
2019-01-20,16:24:13,9.86,-0.29999998,-1.7599999,0.03,0.16,-0.26999998,0.03,0.16,-0.26999998,1,Lying,4
2019-01-20,16:24:13,9.86,-0.29999998,-1.7599999,-0.02,0.21,-0.37,-0.02,0.21,-0.37,1,Lying,4
2019-01-20,16:24:13,9.309999000000001,0.29000002,-1.3499999,-0.04,0.45999998,-0.48999998,-0.04,0.45999998,-0.48999998,1,Lying,4
2019-01-20,16:24:13,9.309999000000001,0.29000002,-1.3499999,-0.04,0.45999998,-0.48999998,-0.04,0.45999998,-0.48999998,1,Lying,4
2019-01-20,16:24:13,9.179999,0.51,-1.43,-0.04,0.45999998,-0.48999998,-0.04,0.45999998,-0.48999998,1,Lying,4
2019-01-20,16:24:13,9.179999,0.51,-1.43,-0.04,-0.09999999400000001,-0.39,-0.04,-0.09999999400000001,-0.39,1,Lying,4
2019-01-20,16:24:13,9.309999000000001,0.65999997,-1.3499999,-0.04,-0.09999999400000001,-0.39,-0.04,-0.09999999400000001,-0.39,1,Lying,4
2019-01-20,16:24:13,9.309999000000001,0.65999997,-1.3499999,-0.049999997000000004,-0.14,-0.32999998,-0.049999997000000004,-0.14,-0.32999998,1,Lying,4
2019-01-20,16:24:13,9.37,0.70000005,-1.3299999,-0.049999997000000004,-0.14,-0.32999998,-0.049999997000000004,-0.14,-0.32999998,1,Lying,4
2019-01-20,16:24:13,9.37,0.70000005,-1.3299999,0.0,-0.14,-0.19999999,0.0,-0.14,-0.19999999,1,Lying,4
2019-01-20,16:24:13,9.48,0.72,-1.4799999,0.0,-0.14,-0.19999999,0.0,-0.14,-0.19999999,1,Lying,4
2019-01-20,16:24:13,9.48,0.72,-1.4799999,0.0,-0.06,-0.089999996,0.0,-0.06,-0.089999996,1,Lying,4
2019-01-20,16:24:13,9.62,0.73,-1.56,0.0,-0.06,-0.089999996,0.0,-0.06,-0.089999996,1,Lying,4
2019-01-20,16:24:13,9.62,0.73,-1.56,-0.03,0.049999997000000004,-0.09999999400000001,-0.03,0.049999997000000004,-0.09999999400000001,1,Lying,4
2019-01-20,16:24:13,10.33,0.93999994,-1.6499999,-0.03,0.049999997000000004,-0.09999999400000001,-0.03,0.049999997000000004,-0.09999999400000001,1,Lying,4
2019-01-20,16:24:13,10.33,0.93999994,-1.6499999,0.049999997000000004,-0.26,-0.19,0.049999997000000004,-0.26,-0.19,1,Lying,4
2019-01-20,16:24:13,10.929999,1.54,-1.8299999,0.049999997000000004,-0.26,-0.19,0.049999997000000004,-0.26,-0.19,1,Lying,4
2019-01-20,16:24:13,10.929999,1.54,-1.8299999,0.24,-0.76,-0.45999998,0.24,-0.76,-0.45999998,1,Lying,4
2019-01-20,16:24:14,10.19,1.54,-2.1499999,0.24,-0.76,-0.45999998,0.24,-0.76,-0.45999998,1,Lying,4
2019-01-20,16:24:14,10.19,1.54,-2.1499999,0.089999996,-0.17999999,-0.53999996,0.089999996,-0.17999999,-0.53999996,1,Lying,4
2019-01-20,16:24:14,8.889999000000001,1.43,-2.07,0.089999996,-0.17999999,-0.53999996,0.089999996,-0.17999999,-0.53999996,1,Lying,4
2019-01-20,16:24:14,8.889999000000001,1.43,-2.07,0.0,0.24,-0.42,0.0,0.24,-0.42,1,Lying,4
2019-01-20,16:24:14,8.469999000000001,1.55,-2.06,0.0,0.24,-0.42,0.0,0.24,-0.42,1,Lying,4
2019-01-20,16:24:14,8.469999000000001,1.55,-2.06,-0.01,0.42999998,-0.37,-0.01,0.42999998,-0.37,1,Lying,4
2019-01-20,16:24:14,8.099999,1.4599999,-2.09,-0.01,0.42999998,-0.37,-0.01,0.42999998,-0.37,1,Lying,4
2019-01-20,16:24:14,8.099999,1.4599999,-2.09,-0.03,0.44,-0.22999999,-0.03,0.44,-0.22999999,1,Lying,4
2019-01-20,16:24:14,8.49,1.6800001,-1.6299999,-0.03,0.44,-0.22999999,-0.03,0.44,-0.22999999,1,Lying,4
2019-01-20,16:24:14,8.49,1.6800001,-1.6299999,-0.03,0.31,-0.01,-0.03,0.31,-0.01,1,Lying,4
2019-01-20,16:24:14,8.4,1.5899999,-1.5999999,-0.03,0.31,-0.01,-0.03,0.31,-0.01,1,Lying,4
2019-01-20,16:24:14,8.4,1.5899999,-1.5999999,0.0,0.39,0.04,0.0,0.39,0.04,1,Lying,4
2019-01-20,16:24:14,8.73,1.53,-1.4499999,0.0,0.39,0.04,0.0,0.39,0.04,1,Lying,4
2019-01-20,16:24:14,8.73,1.53,-1.4499999,0.0,0.26,0.19999999,0.0,0.26,0.19999999,1,Lying,4
2019-01-20,16:24:14,9.139999000000001,1.51,-1.28,0.0,0.19,0.22999999,0.0,0.19,0.22999999,1,Lying,4
2019-01-20,16:24:14,9.139999000000001,1.51,-1.28,0.0,0.19,0.22999999,0.0,0.19,0.22999999,1,Lying,4
2019-01-20,16:24:14,10.07,1.49,-1.1999999,0.0,0.19,0.22999999,0.0,0.19,0.22999999,1,Lying,4
2019-01-20,16:24:14,10.07,1.49,-1.1999999,-0.01,0.14999999,0.31,-0.01,0.14999999,0.31,1,Lying,4
2019-01-20,16:24:14,9.95,1.11,-1.05,-0.01,0.14999999,0.31,-0.01,0.14999999,0.31,1,Lying,4
2019-01-20,16:24:14,9.95,1.11,-1.05,0.089999996,-0.19,0.11,0.089999996,-0.19,0.11,1,Lying,4
2019-01-20,16:24:14,9.669999,1.02,-1.3299999,0.089999996,-0.19,0.11,0.089999996,-0.19,0.11,1,Lying,4
2019-01-20,16:24:14,9.669999,1.02,-1.3299999,0.14,-0.03,0.049999997000000004,0.14,-0.03,0.049999997000000004,1,Lying,4
2019-01-20,16:24:14,9.58,1.03,-1.4799999,0.14,-0.03,0.049999997000000004,0.14,-0.03,0.049999997000000004,1,Lying,4
2019-01-20,16:24:14,9.58,1.03,-1.4799999,0.11,0.0,0.04,0.11,0.0,0.04,1,Lying,4
2019-01-20,16:24:14,9.41,1.0,-1.5699999,0.11,0.0,0.04,0.11,0.0,0.04,1,Lying,4
2019-01-20,16:24:14,9.41,1.0,-1.5699999,0.13,0.01,0.04,0.13,0.01,0.04,1,Lying,4
2019-01-20,16:24:14,9.519999499999999,1.03,-1.28,0.13,0.01,0.04,0.13,0.01,0.04,1,Lying,4
2019-01-20,16:24:14,9.519999499999999,1.03,-1.28,0.049999997000000004,0.0,0.09999999400000001,0.049999997000000004,0.0,0.09999999400000001,1,Lying,4
2019-01-20,16:24:14,9.32,0.81999993,-1.4999999,0.049999997000000004,0.0,0.09999999400000001,0.049999997000000004,0.0,0.09999999400000001,1,Lying,4
2019-01-20,16:24:14,9.32,0.81999993,-1.4999999,0.04,0.03,0.13,0.04,0.03,0.13,1,Lying,4
2019-01-20,16:24:14,9.37,1.1999999,-2.04,0.04,0.03,0.13,0.04,0.03,0.13,1,Lying,4
2019-01-20,16:24:14,9.37,1.1999999,-2.04,-0.089999996,0.03,0.24,-0.089999996,0.03,0.24,1,Lying,4
2019-01-20,16:24:14,9.919999,1.01,-1.04,-0.089999996,0.03,0.24,-0.089999996,0.03,0.24,1,Lying,4
2019-01-20,16:24:14,9.919999,1.01,-1.04,-0.25,0.049999997000000004,0.32,-0.25,0.049999997000000004,0.32,1,Lying,4
2019-01-20,16:24:14,9.65,0.9,-1.03,-0.25,0.049999997000000004,0.32,-0.25,0.049999997000000004,0.32,1,Lying,4
2019-01-20,16:24:14,9.65,0.9,-1.03,-0.089999996,0.28,0.26,-0.089999996,0.28,0.26,1,Lying,4
2019-01-20,16:24:14,9.799999,0.9499999,-1.0799999,-0.089999996,0.28,0.26,-0.089999996,0.28,0.26,1,Lying,4
2019-01-20,16:24:14,9.799999,0.9499999,-1.0799999,0.0,0.02,0.16,0.0,0.02,0.16,1,Lying,4
2019-01-20,16:24:14,9.799999,0.89,-1.17,0.0,0.02,0.16,0.0,0.02,0.16,1,Lying,4
2019-01-20,16:24:14,9.799999,0.89,-1.17,0.06,-0.09999999400000001,0.06,0.06,-0.09999999400000001,0.06,1,Lying,4
2019-01-20,16:24:14,9.74,0.76,-1.3599999,0.06,-0.09999999400000001,0.06,0.06,-0.09999999400000001,0.06,1,Lying,4
2019-01-20,16:24:14,9.74,0.76,-1.3599999,0.0,-0.01,0.04,0.0,-0.01,0.04,1,Lying,4
2019-01-20,16:24:14,9.62,0.65,-1.2399999,0.0,-0.01,0.04,0.0,-0.01,0.04,1,Lying,4
2019-01-20,16:24:14,9.62,0.65,-1.2399999,-0.049999997000000004,-0.04,0.02,-0.049999997000000004,-0.04,0.02,1,Lying,4
2019-01-20,16:24:15,9.62,0.66999996,-1.27,-0.049999997000000004,-0.04,0.02,-0.049999997000000004,-0.04,0.02,1,Lying,4
2019-01-20,16:24:15,9.62,0.66999996,-1.27,-0.04,-0.04,0.01,-0.04,-0.04,0.01,1,Lying,4
2019-01-20,16:24:15,9.639999000000001,0.64,-1.3199999,-0.04,-0.04,0.01,-0.04,-0.04,0.01,1,Lying,4
2019-01-20,16:24:15,9.639999000000001,0.64,-1.3199999,0.0,-0.01,0.0,0.0,-0.01,0.0,1,Lying,4
2019-01-20,16:24:15,9.679999,0.67999995,-1.3899999,0.0,-0.01,0.0,0.0,-0.01,0.0,1,Lying,4
2019-01-20,16:24:15,9.679999,0.67999995,-1.3899999,0.0,-0.01,0.0,0.0,-0.01,0.0,1,Lying,4
2019-01-20,16:24:15,9.599999,0.67999995,-1.4699999,0.0,-0.01,0.0,0.0,-0.01,0.0,1,Lying,4
2019-01-20,16:24:15,9.599999,0.67999995,-1.4699999,0.0,0.01,0.0,0.0,0.01,0.0,1,Lying,4
2019-01-20,16:24:15,9.19,0.70000005,-1.5699999,0.0,0.01,0.0,0.0,0.01,0.0,1,Lying,4
2019-01-20,16:24:15,9.19,0.70000005,-1.5699999,0.0,0.03,0.01,0.0,0.03,0.01,1,Lying,4
2019-01-20,16:24:15,8.62,0.54999995,-1.8999999,0.0,0.03,0.01,0.0,0.03,0.01,1,Lying,4
2019-01-20,16:24:15,8.62,0.54999995,-1.8999999,-0.03,0.02,0.04,-0.03,0.02,0.04,1,Lying,4
2019-01-20,16:24:15,8.53,0.44,-2.03,-0.03,0.02,0.04,-0.03,0.02,0.04,1,Lying,4
2019-01-20,16:24:15,8.53,0.44,-2.03,-0.13,0.0,0.29,-0.13,0.0,0.29,1,Lying,4
2019-01-20,16:24:15,8.48,0.14999998,-1.9399998999999999,-0.13,0.0,0.29,-0.13,0.0,0.29,1,Lying,4
2019-01-20,16:24:15,8.48,0.14999998,-1.9399998999999999,-0.17,-0.17,0.42,-0.17,-0.17,0.42,1,Lying,4
2019-01-20,16:24:15,9.29,0.20999998,-1.91,-0.17,-0.17,0.42,-0.17,-0.17,0.42,1,Lying,4
2019-01-20,16:24:15,9.29,0.20999998,-1.91,-0.14,-0.63,0.5,-0.14,-0.63,0.5,1,Lying,4
2019-01-20,16:24:15,10.03,0.37,-2.1799998,-0.14,-0.63,0.5,-0.14,-0.63,0.5,1,Lying,4
2019-01-20,16:24:15,10.03,0.37,-2.1799998,-0.21,-0.81,0.57,-0.21,-0.81,0.57,1,Lying,4
2019-01-20,16:24:15,10.889999000000001,0.36,-2.1299999,-0.21,-0.81,0.57,-0.21,-0.81,0.57,1,Lying,4
2019-01-20,16:24:15,10.889999000000001,0.36,-2.1299999,-0.41,-0.53,0.65,-0.41,-0.53,0.65,1,Lying,4
2019-01-20,16:24:15,11.15,-0.030000001000000002,-1.7499999,-0.41,-0.53,0.65,-0.41,-0.53,0.65,1,Lying,4
2019-01-20,16:24:15,11.15,-0.030000001000000002,-1.7499999,-0.59,-0.13,0.57,-0.59,-0.13,0.57,1,Lying,4
2019-01-20,16:24:15,10.889999000000001,-0.53999996,-1.7399999,-0.59,-0.13,0.57,-0.59,-0.13,0.57,1,Lying,4
2019-01-20,16:24:15,10.889999000000001,-0.53999996,-1.7399999,-0.52,0.06,0.31,-0.52,0.06,0.31,1,Lying,4
2019-01-20,16:24:15,10.12,-1.03,-1.5799999,-0.52,0.06,0.31,-0.52,0.06,0.31,1,Lying,4
2019-01-20,16:24:15,10.12,-1.03,-1.5799999,-0.29,0.01,0.08,-0.29,0.01,0.08,1,Lying,4
2019-01-20,16:24:15,9.69,-1.2,-1.3,-0.29,0.01,0.08,-0.29,0.01,0.08,1,Lying,4
2019-01-20,16:24:15,9.69,-1.2,-1.3,0.01,-0.41,-0.16,0.01,-0.41,-0.16,1,Lying,4
2019-01-20,16:24:15,9.7,-0.78,-1.9699999,0.01,-0.41,-0.16,0.01,-0.41,-0.16,1,Lying,4
2019-01-20,16:24:15,9.7,-0.78,-1.9699999,0.12,0.39999998,0.08,0.12,0.39999998,0.08,1,Lying,4
2019-01-20,16:24:15,10.209999,-0.75,-2.05,0.12,0.39999998,0.08,0.12,0.39999998,0.08,1,Lying,4
2019-01-20,16:24:15,10.209999,-0.75,-2.05,0.049999997000000004,0.24,0.01,0.049999997000000004,0.24,0.01,1,Lying,4
2019-01-20,16:24:15,10.349999,-0.42,-2.25,0.049999997000000004,0.24,0.01,0.049999997000000004,0.24,0.01,1,Lying,4
2019-01-20,16:24:15,10.349999,-0.42,-2.25,0.12,-0.01,-0.12,0.12,-0.01,-0.12,1,Lying,4
2019-01-20,16:24:15,9.7,-0.71999997,-1.53,0.12,-0.01,-0.12,0.12,-0.01,-0.12,1,Lying,4
2019-01-20,16:24:15,9.7,-0.71999997,-1.53,0.089999996,-0.24,-0.26999998,0.089999996,-0.24,-0.26999998,1,Lying,4
2019-01-20,16:24:15,8.94,-0.42,-1.7099999,0.089999996,-0.24,-0.26999998,0.089999996,-0.24,-0.26999998,1,Lying,4
2019-01-20,16:24:15,8.94,-0.42,-1.7099999,0.06,0.39999998,-0.08,0.06,0.39999998,-0.08,1,Lying,4
2019-01-20,16:24:15,8.849999,-0.16,-2.02,0.06,0.39999998,-0.08,0.06,0.39999998,-0.08,1,Lying,4
2019-01-20,16:24:15,8.849999,-0.16,-2.02,0.12,0.29,-0.03,0.12,0.29,-0.03,1,Lying,4
2019-01-20,16:24:15,9.11,0.01999998,-2.04,0.12,0.29,-0.03,0.12,0.29,-0.03,1,Lying,4
2019-01-20,16:24:15,9.11,0.01999998,-2.04,0.14,-0.09999999400000001,-0.02,0.14,-0.09999999400000001,-0.02,1,Lying,4
2019-01-20,16:24:15,9.459999,0.13999999,-2.4699998,0.14,-0.09999999400000001,-0.02,0.14,-0.09999999400000001,-0.02,1,Lying,4
2019-01-20,16:24:15,9.459999,0.13999999,-2.4699998,0.12,-0.09999999400000001,0.06,0.12,-0.09999999400000001,0.06,1,Lying,4
2019-01-20,16:24:16,9.749999,-0.07999998,-2.51,0.12,-0.09999999400000001,0.06,0.12,-0.09999999400000001,0.06,1,Lying,4
2019-01-20,16:24:16,9.749999,-0.07999998,-2.51,0.03,-0.02,0.13,0.03,-0.02,0.13,1,Lying,4
2019-01-20,16:24:16,9.86,-0.34999996,-2.33,0.03,-0.02,0.13,0.03,-0.02,0.13,1,Lying,4
2019-01-20,16:24:16,9.86,-0.34999996,-2.33,-0.04,-0.07,0.13,-0.04,-0.07,0.13,1,Lying,4
2019-01-20,16:24:16,9.719999000000001,-0.65,-1.92,-0.09999999400000001,0.02,0.12,-0.09999999400000001,0.02,0.12,1,Lying,4
2019-01-20,16:24:16,9.719999000000001,-0.65,-1.92,-0.09999999400000001,0.02,0.12,-0.09999999400000001,0.02,0.12,1,Lying,4
2019-01-20,16:24:16,9.749999,-0.67999995,-1.8799999,-0.09999999400000001,0.02,0.12,-0.09999999400000001,0.02,0.12,1,Lying,4
2019-01-20,16:24:16,9.749999,-0.67999995,-1.8799999,-0.09999999400000001,0.0,0.06,-0.09999999400000001,0.0,0.06,1,Lying,4
2019-01-20,16:24:16,9.549999,-0.76,-1.93,-0.09999999400000001,0.0,0.06,-0.09999999400000001,0.0,0.06,1,Lying,4
2019-01-20,16:24:16,9.549999,-0.76,-1.93,-0.04,0.049999997000000004,0.06,-0.04,0.049999997000000004,0.06,1,Lying,4
2019-01-20,16:24:16,9.599999,-0.65999997,-2.04,-0.04,0.049999997000000004,0.06,-0.04,0.049999997000000004,0.06,1,Lying,4
2019-01-20,16:24:16,9.599999,-0.65999997,-2.04,-0.04,0.02,0.08,-0.04,0.02,0.08,1,Lying,4
2019-01-20,16:24:16,9.73,-0.66999996,-2.03,-0.04,0.02,0.08,-0.04,0.02,0.08,1,Lying,4
2019-01-20,16:24:16,9.73,-0.66999996,-2.03,-0.04,-0.01,0.06,-0.04,-0.01,0.06,1,Lying,4
2019-01-20,16:24:16,9.799999,-0.56,-2.09,-0.04,-0.01,0.06,-0.04,-0.01,0.06,1,Lying,4
2019-01-20,16:24:16,9.799999,-0.56,-2.09,-0.06,0.02,0.06,-0.06,0.02,0.06,1,Lying,4
2019-01-20,16:24:16,9.839999,-0.54999995,-2.04,-0.06,0.02,0.06,-0.06,0.02,0.06,1,Lying,4
2019-01-20,16:24:16,9.839999,-0.54999995,-2.04,-0.11,-0.02,0.049999997000000004,-0.11,-0.02,0.049999997000000004,1,Lying,4
2019-01-20,16:24:16,9.959999,-0.71999997,-1.79,-0.11,-0.02,0.049999997000000004,-0.11,-0.02,0.049999997000000004,1,Lying,4
2019-01-20,16:24:16,9.959999,-0.71999997,-1.79,-0.089999996,-0.14,-0.02,-0.089999996,-0.14,-0.02,1,Lying,4
2019-01-20,16:24:16,9.65,-1.1199999,-1.2199999,-0.089999996,-0.14,-0.02,-0.089999996,-0.14,-0.02,1,Lying,4
2019-01-20,16:24:16,9.65,-1.1199999,-1.2199999,0.0,-0.01,-0.07,0.0,-0.01,-0.07,1,Lying,4
2019-01-20,16:24:16,9.74,-0.76,-1.7399999,0.0,-0.01,-0.07,0.0,-0.01,-0.07,1,Lying,4
2019-01-20,16:24:16,9.74,-0.76,-1.7399999,0.11,0.32,0.02,0.11,0.32,0.02,1,Lying,4
2019-01-20,16:24:16,10.059999000000001,-0.66999996,-1.7299999,0.11,0.32,0.02,0.11,0.32,0.02,1,Lying,4
2019-01-20,16:24:16,10.059999000000001,-0.66999996,-1.7299999,0.14999999,-0.03,-0.08,0.14999999,-0.03,-0.08,1,Lying,4
2019-01-20,16:24:16,9.45,-0.65,-1.54,0.14999999,-0.03,-0.08,0.14999999,-0.03,-0.08,1,Lying,4
2019-01-20,16:24:16,9.45,-0.65,-1.54,0.09999999400000001,0.14999999,-0.06,0.09999999400000001,0.14999999,-0.06,1,Lying,4
2019-01-20,16:24:16,9.219999000000001,-0.53,-1.7399999,0.09999999400000001,0.14999999,-0.06,0.09999999400000001,0.14999999,-0.06,1,Lying,4
2019-01-20,16:24:16,9.219999000000001,-0.53,-1.7399999,0.089999996,0.32,-0.01,0.089999996,0.32,-0.01,1,Lying,4
2019-01-20,16:24:16,9.459999,-0.35999998,-2.01,0.089999996,0.32,-0.01,0.089999996,0.32,-0.01,1,Lying,4
2019-01-20,16:24:16,9.459999,-0.35999998,-2.01,0.09999999400000001,0.02,-0.02,0.09999999400000001,0.02,-0.02,1,Lying,4
2019-01-20,16:24:16,9.639999000000001,-0.40999997,-2.12,0.09999999400000001,0.02,-0.02,0.09999999400000001,0.02,-0.02,1,Lying,4
2019-01-20,16:24:16,9.639999000000001,-0.40999997,-2.12,0.07,-0.12,-0.01,0.07,-0.12,-0.01,1,Lying,4
2019-01-20,16:24:16,9.73,-0.42,-2.1499999,0.07,-0.12,-0.01,0.07,-0.12,-0.01,1,Lying,4
2019-01-20,16:24:16,9.73,-0.42,-2.1499999,0.02,-0.049999997000000004,0.03,0.02,-0.049999997000000004,0.03,1,Lying,4
2019-01-20,16:24:16,9.79,-0.59999996,-1.8399999,-0.04,-0.03,0.02,-0.04,-0.03,0.02,1,Lying,4
2019-01-20,16:24:16,9.79,-0.59999996,-1.8399999,-0.04,-0.03,0.02,-0.04,-0.03,0.02,1,Lying,4
2019-01-20,16:24:16,9.78,-0.65,-1.7599999,-0.04,-0.03,0.02,-0.04,-0.03,0.02,1,Lying,4
2019-01-20,16:24:16,9.78,-0.65,-1.7599999,-0.049999997000000004,-0.03,0.01,-0.049999997000000004,-0.03,0.01,1,Lying,4
2019-01-20,16:24:16,9.769999499999999,-0.66999996,-1.8299999,-0.049999997000000004,-0.03,0.01,-0.049999997000000004,-0.03,0.01,1,Lying,4
2019-01-20,16:24:16,9.769999499999999,-0.66999996,-1.8299999,-0.02,-0.02,0.0,-0.02,-0.02,0.0,1,Lying,4
2019-01-20,16:24:16,9.66,-0.66999996,-1.8899999,-0.02,-0.02,0.0,-0.02,-0.02,0.0,1,Lying,4
2019-01-20,16:24:16,9.66,-0.66999996,-1.8899999,0.0,0.0,0.0,0.0,0.0,0.0,1,Lying,4
2019-01-20,16:24:16,9.719999000000001,-0.71999997,-1.8499999,0.0,0.0,0.0,0.0,0.0,0.0,1,Lying,4
2019-01-20,16:24:16,9.719999000000001,-0.71999997,-1.8499999,-0.01,0.0,0.0,-0.01,0.0,0.0,1,Lying,4
2019-01-20,16:24:17,9.78,-0.59999996,-1.78,-0.01,0.0,0.0,-0.01,0.0,0.0,1,Lying,4
2019-01-20,16:24:17,9.78,-0.59999996,-1.78,-0.03,-0.02,0.0,-0.03,-0.02,0.0,1,Lying,4
2019-01-20,16:24:17,9.79,-0.60999995,-1.7599999,-0.03,-0.02,0.0,-0.03,-0.02,0.0,1,Lying,4
2019-01-20,16:24:17,9.79,-0.60999995,-1.7599999,-0.02,-0.02,-0.01,-0.02,-0.02,-0.01,1,Lying,4
2019-01-20,16:24:17,9.639999000000001,-0.53999996,-1.8899999,-0.02,-0.02,-0.01,-0.02,-0.02,-0.01,1,Lying,4
2019-01-20,16:24:17,9.639999000000001,-0.53999996,-1.8899999,0.0,0.0,-0.02,0.0,0.0,-0.02,1,Lying,4
2019-01-20,16:24:17,9.629999,-0.48999998,-1.93,0.0,0.0,-0.02,0.0,0.0,-0.02,1,Lying,4
2019-01-20,16:24:17,9.629999,-0.48999998,-1.93,0.0,0.01,0.0,0.0,0.01,0.0,1,Lying,4
2019-01-20,16:24:17,9.749999,-0.53,-1.8899999,0.0,0.01,0.0,0.0,0.01,0.0,1,Lying,4
2019-01-20,16:24:17,9.749999,-0.53,-1.8899999,-0.02,-0.03,0.0,-0.02,-0.03,0.0,1,Lying,4
2019-01-20,16:24:17,9.759999,-0.58,-1.8699999,-0.02,-0.03,0.0,-0.02,-0.03,0.0,1,Lying,4
2019-01-20,16:24:17,9.759999,-0.58,-1.8699999,-0.04,-0.03,0.01,-0.04,-0.03,0.01,1,Lying,4
2019-01-20,16:24:17,9.61,-0.59999996,-1.8599999,-0.04,-0.03,0.01,-0.04,-0.03,0.01,1,Lying,4
2019-01-20,16:24:17,9.61,-0.59999996,-1.8599999,-0.01,0.0,0.0,-0.01,0.0,0.0,1,Lying,4
2019-01-20,16:24:17,9.639999000000001,-0.60999995,-1.8399999,-0.01,0.0,0.0,-0.01,0.0,0.0,1,Lying,4
2019-01-20,16:24:17,9.639999000000001,-0.60999995,-1.8399999,0.0,-0.01,0.01,0.0,-0.01,0.01,1,Lying,4
2019-01-20,16:24:17,9.769999499999999,-0.54999995,-1.91,0.0,-0.01,0.01,0.0,-0.01,0.01,1,Lying,4
2019-01-20,16:24:17,9.769999499999999,-0.54999995,-1.91,0.01,-0.02,0.02,0.01,-0.02,0.02,1,Lying,4
2019-01-20,16:24:17,9.669999,-0.56,-1.9499999,0.0,-0.02,0.0,0.0,-0.02,0.0,1,Lying,4
2019-01-20,16:24:17,9.669999,-0.56,-1.9499999,0.0,-0.02,0.0,0.0,-0.02,0.0,1,Lying,4
2019-01-20,16:24:17,9.669999,-0.54999995,-1.9699999,0.0,-0.02,0.0,0.0,-0.02,0.0,1,Lying,4
2019-01-20,16:24:17,9.669999,-0.54999995,-1.9699999,0.0,-0.01,0.0,0.0,-0.01,0.0,1,Lying,4
2019-01-20,16:24:17,9.589999,-0.53,-2.05,0.0,-0.01,0.0,0.0,-0.01,0.0,1,Lying,4
2019-01-20,16:24:17,9.589999,-0.53,-2.05,0.0,0.0,0.01,0.0,0.0,0.01,1,Lying,4
2019-01-20,16:24:17,9.65,-0.62,-1.9899999,0.0,0.0,0.01,0.0,0.0,0.01,1,Lying,4
2019-01-20,16:24:17,9.65,-0.62,-1.9899999,0.01,0.0,0.01,0.01,0.0,0.01,1,Lying,4
2019-01-20,16:24:17,9.83,-0.59999996,-1.9799999,0.01,0.0,0.01,0.01,0.0,0.01,1,Lying,4
2019-01-20,16:24:17,9.83,-0.59999996,-1.9799999,0.0,0.0,0.03,0.0,0.0,0.03,1,Lying,4
2019-01-20,16:24:17,9.889999000000001,-0.62,-1.9699999,0.0,0.0,0.03,0.0,0.0,0.03,1,Lying,4
2019-01-20,16:24:17,9.889999000000001,-0.62,-1.9699999,0.0,-0.02,0.01,0.0,-0.02,0.01,1,Lying,4
2019-01-20,16:24:17,9.749999,-0.65999997,-1.9399998999999999,0.0,-0.02,0.01,0.0,-0.02,0.01,1,Lying,4
2019-01-20,16:24:17,9.749999,-0.65999997,-1.9399998999999999,0.0,0.0,-0.01,0.0,0.0,-0.01,1,Lying,4
2019-01-20,16:24:17,9.639999000000001,-0.62,-1.9899999,0.01,0.02,-0.01,0.01,0.02,-0.01,1,Lying,4
2019-01-20,16:24:17,9.639999000000001,-0.62,-1.9899999,0.01,0.02,-0.01,0.01,0.02,-0.01,1,Lying,4
2019-01-20,16:24:17,9.69,-0.52,-1.8899999,0.01,0.02,-0.01,0.01,0.02,-0.01,1,Lying,4
2019-01-20,16:24:17,9.69,-0.52,-1.8899999,-0.01,0.0,0.0,-0.01,0.0,0.0,1,Lying,4
2019-01-20,16:24:17,9.629999,-0.60999995,-1.8399999,-0.01,0.0,0.0,-0.01,0.0,0.0,1,Lying,4
2019-01-20,16:24:17,9.629999,-0.60999995,-1.8399999,-0.02,0.0,-0.01,-0.02,0.0,-0.01,1,Lying,4
2019-01-20,16:24:17,9.58,-0.53,-1.92,-0.02,0.0,-0.01,-0.02,0.0,-0.01,1,Lying,4
2019-01-20,16:24:17,9.58,-0.53,-1.92,0.02,0.0,-0.02,0.02,0.0,-0.02,1,Lying,4
2019-01-20,16:24:17,9.599999,-0.52,-2.06,0.02,0.0,-0.02,0.02,0.0,-0.02,1,Lying,4
2019-01-20,16:24:17,9.599999,-0.52,-2.06,0.03,0.03,0.0,0.03,0.03,0.0,1,Lying,4
2019-01-20,16:24:17,9.809999000000001,-0.40999997,-1.8999999,0.03,0.03,0.0,0.03,0.03,0.0,1,Lying,4
2019-01-20,16:24:17,9.809999000000001,-0.40999997,-1.8999999,0.04,0.01,0.01,0.04,0.01,0.01,1,Lying,4
2019-01-20,16:24:18,9.73,-0.52,-1.9599999,0.04,0.01,0.01,0.04,0.01,0.01,1,Lying,4
2019-01-20,16:24:18,9.73,-0.52,-1.9599999,0.01,0.04,0.01,0.01,0.04,0.01,1,Lying,4
2019-01-20,16:24:18,9.799999,-0.52,-1.8699999,0.01,0.04,0.01,0.01,0.04,0.01,1,Lying,4
2019-01-20,16:24:18,9.799999,-0.52,-1.8699999,0.0,-0.02,0.0,0.0,-0.02,0.0,1,Lying,4
2019-01-20,16:24:18,9.709999,-0.57,-1.9899999,0.0,-0.02,0.0,0.0,-0.02,0.0,1,Lying,4
2019-01-20,16:24:18,9.709999,-0.57,-1.9899999,0.0,0.01,0.01,0.0,0.01,0.01,1,Lying,4
2019-01-20,16:24:18,9.91,-0.58,-1.8199999,0.0,0.01,0.01,0.0,0.01,0.01,1,Lying,4
2019-01-20,16:24:18,9.91,-0.58,-1.8199999,0.03,-0.01,0.0,0.03,-0.01,0.0,1,Lying,4
2019-01-20,16:24:18,9.57,-0.58,-1.91,0.03,-0.01,0.0,0.03,-0.01,0.0,1,Lying,4
2019-01-20,16:24:18,9.57,-0.58,-1.91,0.089999996,0.14,-0.02,0.089999996,0.14,-0.02,1,Lying,4
2019-01-20,16:24:18,9.79,-0.54999995,-1.81,0.089999996,0.14,-0.02,0.089999996,0.14,-0.02,1,Lying,4
2019-01-20,16:24:18,9.79,-0.54999995,-1.81,0.06,0.049999997000000004,-0.02,0.06,0.049999997000000004,-0.02,1,Lying,4
2019-01-20,16:24:18,9.669999,-0.58,-1.8999999,0.06,0.049999997000000004,-0.02,0.06,0.049999997000000004,-0.02,1,Lying,4
2019-01-20,16:24:18,9.669999,-0.58,-1.8999999,0.06,0.0,-0.03,0.06,0.0,-0.03,1,Lying,4
2019-01-20,16:24:18,9.759999,-0.59,-1.8,0.06,0.0,-0.03,0.06,0.0,-0.03,1,Lying,4
2019-01-20,16:24:18,9.759999,-0.59,-1.8,0.04,0.04,0.0,0.04,0.04,0.0,1,Lying,4
2019-01-20,16:24:18,9.769999499999999,-0.63,-1.8499999,0.04,0.04,0.0,0.04,0.04,0.0,1,Lying,4
2019-01-20,16:24:18,9.769999499999999,-0.63,-1.8499999,0.02,0.0,-0.01,0.02,0.0,-0.01,1,Lying,4
2019-01-20,16:24:18,9.749999,-0.48999998,-2.03,0.02,0.0,-0.01,0.02,0.0,-0.01,1,Lying,4
2019-01-20,16:24:18,9.749999,-0.48999998,-2.03,0.04,0.03,-0.01,0.04,0.03,-0.01,1,Lying,4
2019-01-20,16:24:18,9.7,-0.52,-1.8899999,0.04,0.03,-0.01,0.04,0.03,-0.01,1,Lying,4
2019-01-20,16:24:18,9.7,-0.52,-1.8899999,0.0,0.0,-0.01,0.0,0.0,-0.01,1,Lying,4
2019-01-20,16:24:18,9.719999000000001,-0.58,-1.79,0.0,0.0,-0.01,0.0,0.0,-0.01,1,Lying,4
2019-01-20,16:24:18,9.719999000000001,-0.58,-1.79,0.0,0.0,0.0,0.0,0.0,0.0,1,Lying,4
2019-01-20,16:24:18,9.74,-0.54999995,-1.78,0.0,0.0,0.0,0.0,0.0,0.0,1,Lying,4
2019-01-20,16:24:18,9.74,-0.54999995,-1.78,0.01,0.02,0.0,0.01,0.02,0.0,1,Lying,4
2019-01-20,16:24:18,9.69,-0.54999995,-1.93,0.01,0.02,0.0,0.01,0.02,0.0,1,Lying,4
2019-01-20,16:24:18,9.69,-0.54999995,-1.93,0.02,0.02,0.0,0.02,0.02,0.0,1,Lying,4
2019-01-20,16:24:18,9.719999000000001,-0.59,-1.79,0.02,0.02,0.0,0.02,0.02,0.0,1,Lying,4
2019-01-20,16:24:18,9.719999000000001,-0.59,-1.79,0.0,0.0,0.0,0.0,0.0,0.0,1,Lying,4
2019-01-20,16:24:18,9.66,-0.49999997,-1.8,0.0,0.0,0.0,0.0,0.0,0.0,1,Lying,4
2019-01-20,16:24:18,9.66,-0.49999997,-1.8,0.0,0.01,0.0,0.0,0.01,0.0,1,Lying,4
2019-01-20,16:24:18,9.7,-0.52,-1.7399999,0.0,0.01,0.0,0.0,0.01,0.0,1,Lying,4
2019-01-20,16:24:18,9.7,-0.52,-1.7399999,0.0,0.0,0.0,0.0,0.0,0.0,1,Lying,4
2019-01-20,16:24:18,9.66,-0.52,-1.79,0.0,0.0,0.0,0.0,0.0,0.0,1,Lying,4
2019-01-20,16:24:18,9.66,-0.52,-1.79,-0.01,0.0,0.0,-0.01,0.0,0.0,1,Lying,4
2019-01-20,16:24:18,9.69,-0.59,-1.81,-0.01,0.0,0.0,-0.01,0.0,0.0,1,Lying,4
2019-01-20,16:24:18,9.69,-0.59,-1.81,0.0,-0.01,0.01,0.0,-0.01,0.01,1,Lying,4
2019-01-20,16:24:18,9.669999,-0.57,-1.8,0.0,-0.01,0.01,0.0,-0.01,0.01,1,Lying,4
2019-01-20,16:24:18,9.669999,-0.57,-1.8,0.0,-0.01,0.01,0.0,-0.01,0.01,1,Lying,4
2019-01-20,16:24:18,9.69,-0.54999995,-1.8699999,0.0,-0.01,0.01,0.0,-0.01,0.01,1,Lying,4
2019-01-20,16:24:18,9.69,-0.54999995,-1.8699999,0.0,0.0,0.01,0.0,0.0,0.01,1,Lying,4
2019-01-20,16:24:18,9.719999000000001,-0.52,-1.81,0.0,0.0,0.01,0.0,0.0,0.01,1,Lying,4
2019-01-20,16:24:18,9.719999000000001,-0.52,-1.81,0.0,0.0,0.0,0.0,0.0,0.0,1,Lying,4
2019-01-20,16:24:18,9.769999499999999,-0.51,-1.8499999,0.0,0.0,0.0,0.0,0.0,0.0,1,Lying,4
2019-01-20,16:24:18,9.769999499999999,-0.51,-1.8499999,0.0,-0.01,0.0,0.0,-0.01,0.0,1,Lying,4
2019-01-20,16:24:18,9.629999,-0.57,-1.8499999,0.0,-0.01,0.0,0.0,-0.01,0.0,1,Lying,4
2019-01-20,16:24:18,9.629999,-0.57,-1.8499999,0.0,0.0,0.0,0.0,0.0,0.0,1,Lying,4
2019-01-20,16:24:19,9.709999,-0.51,-1.9899999,0.0,0.0,0.0,0.0,0.0,0.0,1,Lying,4
2019-01-20,16:24:19,9.709999,-0.51,-1.9899999,0.01,0.02,0.0,0.01,0.02,0.0,1,Lying,4
2019-01-20,16:24:19,9.73,-0.51,-1.8799999,0.01,0.02,0.0,0.01,0.02,0.0,1,Lying,4
2019-01-20,16:24:19,9.73,-0.51,-1.8799999,-0.01,0.01,0.0,-0.01,0.01,0.0,1,Lying,4
2019-01-20,16:24:19,9.709999,-0.56,-1.7699999,-0.01,0.01,0.0,-0.01,0.01,0.0,1,Lying,4
2019-01-20,16:24:19,9.709999,-0.56,-1.7699999,-0.02,-0.01,0.0,-0.02,-0.01,0.0,1,Lying,4
2019-01-20,16:24:19,9.679999,-0.59999996,-1.81,-0.02,-0.01,0.0,-0.02,-0.01,0.0,1,Lying,4
2019-01-20,16:24:19,9.679999,-0.59999996,-1.81,-0.01,0.0,0.0,-0.01,0.0,0.0,1,Lying,4
2019-01-20,16:24:19,9.62,-0.56,-1.81,-0.01,0.0,0.0,-0.01,0.0,0.0,1,Lying,4
2019-01-20,16:24:19,9.62,-0.56,-1.81,0.0,0.0,0.0,0.0,0.0,0.0,1,Lying,4
2019-01-20,16:24:19,9.74,-0.54999995,-1.8599999,0.0,0.0,0.0,0.0,0.0,0.0,1,Lying,4
2019-01-20,16:24:19,9.74,-0.54999995,-1.8599999,0.0,0.0,0.0,0.0,0.0,0.0,1,Lying,4
2019-01-20,16:24:19,9.679999,-0.53,-1.93,0.0,0.0,0.0,0.0,0.0,0.0,1,Lying,4
2019-01-20,16:24:19,9.679999,-0.53,-1.93,0.0,0.0,0.0,0.0,0.0,0.0,1,Lying,4
2019-01-20,16:24:19,9.719999000000001,-0.52,-1.79,0.0,0.0,0.0,0.0,0.0,0.0,1,Lying,4
2019-01-20,16:24:19,9.719999000000001,-0.52,-1.79,-0.01,0.0,0.0,-0.01,0.0,0.0,1,Lying,4
2019-01-20,16:24:19,9.719999000000001,-0.52,-1.79,-0.01,0.0,0.0,-0.01,0.0,0.0,1,Lying,4
2019-01-20,16:24:19,9.65,-0.58,-1.8399999,-0.01,0.0,0.0,-0.01,0.0,0.0,1,Lying,4
2019-01-20,16:24:19,9.65,-0.58,-1.8399999,0.0,0.0,0.0,0.0,0.0,0.0,1,Lying,4
2019-01-20,16:24:19,9.669999,-0.54999995,-1.8399999,0.0,0.0,0.0,0.0,0.0,0.0,1,Lying,4
2019-01-20,16:24:19,9.669999,-0.54999995,-1.8399999,0.0,0.0,0.0,0.0,0.0,0.0,1,Lying,4
2019-01-20,16:24:19,9.74,-0.53,-1.8999999,0.0,0.0,0.0,0.0,0.0,0.0,1,Lying,4
2019-01-20,16:24:19,9.74,-0.53,-1.8999999,0.01,0.0,0.0,0.01,0.0,0.0,1,Lying,4
2019-01-20,16:24:19,9.66,-0.53999996,-1.8899999,0.01,0.0,0.0,0.01,0.0,0.0,1,Lying,4
2019-01-20,16:24:19,9.66,-0.53999996,-1.8899999,0.01,0.01,0.0,0.01,0.01,0.0,1,Lying,4
2019-01-20,16:24:19,9.7,-0.52,-1.8,0.01,0.01,0.0,0.01,0.01,0.0,1,Lying,4
2019-01-20,16:24:19,9.7,-0.52,-1.8,0.0,0.0,0.0,0.0,0.0,0.0,1,Lying,4
2019-01-20,16:24:19,9.749999,-0.56,-1.8499999,0.0,0.0,0.0,0.0,0.0,0.0,1,Lying,4
2019-01-20,16:24:19,9.749999,-0.56,-1.8499999,0.0,0.0,0.0,0.0,0.0,0.0,1,Lying,4
2019-01-20,16:24:19,9.749999,-0.53,-1.78,0.0,0.0,0.0,0.0,0.0,0.0,1,Lying,4
2019-01-20,16:24:19,9.749999,-0.53,-1.78,0.0,0.0,0.0,0.0,0.0,0.0,1,Lying,4
2019-01-20,16:24:19,9.709999,-0.52,-1.93,0.0,0.0,0.0,0.0,0.0,0.0,1,Lying,4
2019-01-20,16:24:19,9.709999,-0.52,-1.93,0.03,0.03,-0.01,0.03,0.03,-0.01,1,Lying,4
2019-01-20,16:24:19,9.639999000000001,-0.52,-1.8199999,0.03,0.03,-0.01,0.03,0.03,-0.01,1,Lying,4
2019-01-20,16:24:19,9.639999000000001,-0.52,-1.8199999,0.0,0.0,0.0,0.0,0.0,0.0,1,Lying,4
2019-01-20,16:24:19,9.719999000000001,-0.54999995,-1.7499999,0.0,0.0,0.0,0.0,0.0,0.0,1,Lying,4
2019-01-20,16:24:19,9.719999000000001,-0.54999995,-1.7499999,0.0,0.0,0.0,0.0,0.0,0.0,1,Lying,4
2019-01-20,16:24:19,9.69,-0.54999995,-1.8599999,0.0,0.0,0.0,0.0,0.0,0.0,1,Lying,4
2019-01-20,16:24:19,9.69,-0.54999995,-1.8599999,0.0,0.0,0.0,0.0,0.0,0.0,1,Lying,4
2019-01-20,16:24:19,9.629999,-0.59,-1.8399999,0.0,0.0,0.0,0.0,0.0,0.0,1,Lying,4
2019-01-20,16:24:19,9.629999,-0.59,-1.8399999,0.01,0.01,0.0,0.01,0.01,0.0,1,Lying,4
2019-01-20,16:24:19,9.749999,-0.56,-1.78,0.01,0.01,0.0,0.01,0.01,0.0,1,Lying,4
2019-01-20,16:24:19,9.749999,-0.56,-1.78,0.01,0.0,0.01,0.01,0.0,0.01,1,Lying,4
2019-01-20,16:24:19,9.809999000000001,-0.52,-1.8499999,0.01,0.0,0.01,0.01,0.0,0.01,1,Lying,4
2019-01-20,16:24:20,9.809999000000001,-0.52,-1.8499999,0.01,0.01,0.01,0.01,0.01,0.01,1,Lying,4
2019-01-20,16:24:20,9.709999,-0.52,-1.8199999,0.01,0.01,0.01,0.01,0.01,0.01,1,Lying,4
2019-01-20,16:24:20,9.709999,-0.52,-1.8199999,0.0,0.0,0.0,0.0,0.0,0.0,1,Lying,4
2019-01-20,16:24:20,9.7,-0.59,-1.8699999,0.0,0.0,0.0,0.0,0.0,0.0,1,Lying,4
2019-01-20,16:24:20,9.7,-0.59,-1.8699999,0.0,0.0,0.0,0.0,0.0,0.0,1,Lying,4
2019-01-20,16:24:20,9.7,-0.53999996,-1.8799999,0.0,0.0,0.0,0.0,0.0,0.0,1,Lying,4
2019-01-20,16:24:20,9.7,-0.53999996,-1.8799999,0.0,0.0,0.0,0.0,0.0,0.0,1,Lying,4
2019-01-20,16:24:20,9.679999,-0.59,-1.8399999,0.0,0.0,0.0,0.0,0.0,0.0,1,Lying,4
2019-01-20,16:24:20,9.679999,-0.59,-1.8399999,0.0,0.0,0.0,0.0,0.0,0.0,1,Lying,4
2019-01-20,16:24:20,9.629999,-0.59999996,-1.8499999,0.0,0.0,0.0,0.0,0.0,0.0,1,Lying,4
2019-01-20,16:24:20,9.629999,-0.59999996,-1.8499999,-0.02,0.0,0.01,-0.02,0.0,0.01,1,Lying,4
2019-01-20,16:24:20,9.669999,-0.58,-1.7199999,-0.02,0.0,0.01,-0.02,0.0,0.01,1,Lying,4
2019-01-20,16:24:20,9.669999,-0.58,-1.7199999,-0.04,-0.02,0.02,-0.04,-0.02,0.02,1,Lying,4
2019-01-20,16:24:20,9.679999,-0.59999996,-1.7699999,-0.04,-0.02,0.02,-0.04,-0.02,0.02,1,Lying,4
2019-01-20,16:24:20,9.679999,-0.59999996,-1.7699999,-0.01,-0.01,0.01,-0.01,-0.01,0.01,1,Lying,4
2019-01-20,16:24:20,9.719999000000001,-0.57,-1.79,-0.01,-0.01,0.01,-0.01,-0.01,0.01,1,Lying,4
2019-01-20,16:24:20,9.719999000000001,-0.57,-1.79,0.0,0.0,0.02,0.0,0.0,0.02,1,Lying,4
2019-01-20,16:24:20,9.78,-0.53,-1.92,0.0,0.0,0.02,0.0,0.0,0.02,1,Lying,4
2019-01-20,16:24:20,9.78,-0.53,-1.92,0.01,0.0,0.02,0.01,0.0,0.02,1,Lying,4
2019-01-20,16:24:20,9.73,-0.57,-1.79,0.01,0.0,0.02,0.01,0.0,0.02,1,Lying,4
2019-01-20,16:24:20,9.73,-0.57,-1.79,-0.01,0.0,0.01,-0.01,0.0,0.01,1,Lying,4
2019-01-20,16:24:20,9.69,-0.64,-1.7199999,-0.01,0.0,0.01,-0.01,0.0,0.01,1,Lying,4
2019-01-20,16:24:20,9.69,-0.64,-1.7199999,0.0,0.0,0.0,0.0,0.0,0.0,1,Lying,4
2019-01-20,16:24:20,9.7,-0.65,-1.8199999,0.0,0.0,0.0,0.0,0.0,0.0,1,Lying,4
2019-01-20,16:24:20,9.7,-0.65,-1.8199999,0.0,0.0,0.0,0.0,0.0,0.0,1,Lying,4
2019-01-20,16:24:20,9.719999000000001,-0.62,-1.81,0.0,0.0,0.0,0.0,0.0,0.0,1,Lying,4
2019-01-20,16:24:20,9.719999000000001,-0.62,-1.81,0.0,0.0,0.0,0.0,0.0,0.0,1,Lying,4
2019-01-20,16:24:20,9.709999,-0.63,-1.7499999,0.0,0.0,0.0,0.0,0.0,0.0,1,Lying,4
2019-01-20,16:24:20,9.709999,-0.63,-1.7499999,-0.02,-0.01,0.0,-0.02,-0.01,0.0,1,Lying,4
2019-01-20,16:24:20,9.769999499999999,-0.52,-1.7599999,-0.02,-0.01,0.0,-0.02,-0.01,0.0,1,Lying,4
2019-01-20,16:24:20,9.769999499999999,-0.52,-1.7599999,0.0,-0.01,0.0,0.0,-0.01,0.0,1,Lying,4
2019-01-20,16:24:20,9.639999000000001,-0.56,-1.8999999,0.0,-0.01,0.0,0.0,-0.01,0.0,1,Lying,4
2019-01-20,16:24:20,9.639999000000001,-0.56,-1.8999999,0.0,0.0,0.0,0.0,0.0,0.0,1,Lying,4
2019-01-20,16:24:20,9.679999,-0.59999996,-1.8699999,0.0,0.0,0.0,0.0,0.0,0.0,1,Lying,4
2019-01-20,16:24:20,9.679999,-0.59999996,-1.8699999,0.0,-0.01,0.0,0.0,-0.01,0.0,1,Lying,4
2019-01-20,16:24:20,9.7,-0.58,-1.8899999,0.0,-0.01,0.01,0.0,-0.01,0.01,1,Lying,4
2019-01-20,16:24:20,9.7,-0.58,-1.8899999,0.0,-0.01,0.01,0.0,-0.01,0.01,1,Lying,4
2019-01-20,16:24:20,9.709999,-0.63,-1.8799999,0.0,-0.01,0.01,0.0,-0.01,0.01,1,Lying,4
2019-01-20,16:24:20,9.709999,-0.63,-1.8799999,0.0,0.0,0.01,0.0,0.0,0.01,1,Lying,4
2019-01-20,16:24:20,9.719999000000001,-0.65999997,-1.8499999,0.0,0.0,0.01,0.0,0.0,0.01,1,Lying,4
2019-01-20,16:24:20,9.719999000000001,-0.65999997,-1.8499999,0.0,0.0,0.0,0.0,0.0,0.0,1,Lying,4
2019-01-20,16:24:20,9.639999000000001,-0.71,-1.8299999,0.0,0.0,0.0,0.0,0.0,0.0,1,Lying,4
2019-01-20,16:24:20,9.639999000000001,-0.71,-1.8299999,-0.01,-0.01,0.0,-0.01,-0.01,0.0,1,Lying,4
2019-01-20,16:24:20,9.709999,-0.60999995,-1.8199999,-0.01,-0.01,0.0,-0.01,-0.01,0.0,1,Lying,4
2019-01-20,16:24:20,9.709999,-0.60999995,-1.8199999,-0.01,0.0,0.01,-0.01,0.0,0.01,1,Lying,4
2019-01-20,16:24:21,9.709999,-0.66999996,-1.8299999,-0.01,0.0,0.01,-0.01,0.0,0.01,1,Lying,4
2019-01-20,16:24:21,9.709999,-0.66999996,-1.8299999,-0.02,-0.01,0.0,-0.02,-0.01,0.0,1,Lying,4
2019-01-20,16:24:21,9.74,-0.49999997,-2.01,-0.02,-0.01,0.0,-0.02,-0.01,0.0,1,Lying,4
2019-01-20,16:24:21,9.74,-0.49999997,-2.01,0.0,0.02,0.0,0.0,0.02,0.0,1,Lying,4
2019-01-20,16:24:21,9.73,-0.59,-1.8899999,0.0,0.02,0.0,0.0,0.02,0.0,1,Lying,4
2019-01-20,16:24:21,9.73,-0.59,-1.8899999,-0.01,-0.01,0.0,-0.01,-0.01,0.0,1,Lying,4
2019-01-20,16:24:21,9.629999,-0.58,-1.8,-0.01,-0.01,0.0,-0.01,-0.01,0.0,1,Lying,4
2019-01-20,16:24:21,9.629999,-0.58,-1.8,-0.02,-0.01,0.0,-0.02,-0.01,0.0,1,Lying,4
2019-01-20,16:24:21,9.62,-0.57,-1.9599999,-0.02,-0.01,0.0,-0.02,-0.01,0.0,1,Lying,4
2019-01-20,16:24:21,9.62,-0.57,-1.9599999,0.0,0.0,0.0,0.0,0.0,0.0,1,Lying,4
2019-01-20,16:24:21,9.639999000000001,-0.59,-1.8799999,0.0,0.0,0.0,0.0,0.0,0.0,1,Lying,4
2019-01-20,16:24:21,9.639999000000001,-0.59,-1.8799999,0.0,0.0,0.0,0.0,0.0,0.0,1,Lying,4
2019-01-20,16:24:21,9.669999,-0.64,-1.8999999,0.0,0.0,0.0,0.0,0.0,0.0,1,Lying,4
2019-01-20,16:24:21,9.669999,-0.64,-1.8999999,0.0,0.0,0.01,0.0,0.0,0.01,1,Lying,4
2019-01-20,16:24:21,9.7,-0.65,-1.79,0.0,0.0,0.01,0.0,0.0,0.01,1,Lying,4
2019-01-20,16:24:21,9.7,-0.65,-1.79,0.0,0.0,0.01,0.0,0.0,0.01,1,Lying,4
2019-01-20,16:24:21,9.759999,-0.66999996,-1.8399999,0.0,0.0,0.01,0.0,0.0,0.01,1,Lying,4
2019-01-20,16:24:21,9.759999,-0.66999996,-1.8399999,0.02,0.0,0.01,0.02,0.0,0.01,1,Lying,4
2019-01-20,16:24:21,9.549999,-0.81999993,-1.79,0.02,0.0,0.01,0.02,0.0,0.01,1,Lying,4
2019-01-20,16:24:21,9.549999,-0.81999993,-1.79,0.02,0.0,0.0,0.02,0.0,0.0,1,Lying,4
2019-01-20,16:24:21,9.629999,-0.84,-1.8,0.02,0.0,0.0,0.02,0.0,0.0,1,Lying,4
2019-01-20,16:24:21,9.629999,-0.84,-1.8,0.03,0.0,0.0,0.03,0.0,0.0,1,Lying,4
2019-01-20,16:24:21,9.769999499999999,-0.9,-1.7099999,0.03,0.0,0.0,0.03,0.0,0.0,1,Lying,4
2019-01-20,16:24:21,9.769999499999999,-0.9,-1.7099999,0.06,-0.01,0.0,0.06,-0.01,0.0,1,Lying,4
2019-01-20,16:24:21,10.24,-0.72999996,-1.9699999,0.06,-0.01,0.0,0.06,-0.01,0.0,1,Lying,4
2019-01-20,16:24:21,10.24,-0.72999996,-1.9699999,0.16,-0.04,-0.04,0.16,-0.04,-0.04,1,Lying,4
2019-01-20,16:24:21,10.15,-0.63,-2.1399999,0.16,-0.04,-0.04,0.16,-0.04,-0.04,1,Lying,4
2019-01-20,16:24:21,10.15,-0.63,-2.1399999,0.17,0.02,-0.049999997000000004,0.17,0.02,-0.049999997000000004,1,Lying,4
2019-01-20,16:24:21,9.589999,-0.39999998,-2.1499999,0.17,0.02,-0.049999997000000004,0.17,0.02,-0.049999997000000004,1,Lying,4
2019-01-20,16:24:21,9.589999,-0.39999998,-2.1499999,0.09999999400000001,0.089999996,-0.11,0.09999999400000001,0.089999996,-0.11,1,Lying,4
2019-01-20,16:24:21,9.53,-0.37,-2.02,0.09999999400000001,0.089999996,-0.11,0.09999999400000001,0.089999996,-0.11,1,Lying,4
2019-01-20,16:24:21,9.53,-0.37,-2.02,0.02,0.06,-0.09999999400000001,0.02,0.06,-0.09999999400000001,1,Lying,4
2019-01-20,16:24:21,9.629999,-0.37,-1.8499999,0.02,0.06,-0.09999999400000001,0.02,0.06,-0.09999999400000001,1,Lying,4
2019-01-20,16:24:21,9.629999,-0.37,-1.8499999,-0.03,0.07,-0.07,-0.03,0.07,-0.07,1,Lying,4
2019-01-20,16:24:21,9.87,-0.65,-1.5199999,-0.03,0.07,-0.07,-0.03,0.07,-0.07,1,Lying,4
2019-01-20,16:24:21,9.87,-0.65,-1.5199999,0.0,0.12,-0.07,0.0,0.12,-0.07,1,Lying,4
2019-01-20,16:24:21,9.849999,-0.67999995,-1.6199999,0.0,0.12,-0.07,0.0,0.12,-0.07,1,Lying,4
2019-01-20,16:24:21,9.849999,-0.67999995,-1.6199999,0.11,0.22999999,-0.08,0.11,0.22999999,-0.08,1,Lying,4
2019-01-20,16:24:21,9.91,-0.7,-1.66,0.11,0.22999999,-0.08,0.11,0.22999999,-0.08,1,Lying,4
2019-01-20,16:24:21,9.91,-0.7,-1.66,0.12,0.14999999,-0.14,0.12,0.14999999,-0.14,1,Lying,4
2019-01-20,16:24:21,9.879999,-0.52,-1.7299999,0.12,0.14999999,-0.14,0.12,0.14999999,-0.14,1,Lying,4
2019-01-20,16:24:21,9.879999,-0.52,-1.7299999,0.11,0.22,-0.14999999,0.11,0.22,-0.14999999,1,Lying,4
2019-01-20,16:24:21,9.9,-0.45999998,-1.67,0.11,0.22,-0.14999999,0.11,0.22,-0.14999999,1,Lying,4
2019-01-20,16:24:21,9.9,-0.45999998,-1.67,0.089999996,0.24,-0.19,0.089999996,0.24,-0.19,1,Lying,4
2019-01-20,16:24:21,10.049999,-0.29999998,-1.5699999,0.089999996,0.24,-0.19,0.089999996,0.24,-0.19,1,Lying,4
2019-01-20,16:24:21,10.049999,-0.29999998,-1.5699999,0.07,0.16,-0.24,0.07,0.16,-0.24,1,Lying,4
2019-01-20,16:24:22,9.309999000000001,-0.52,-1.28,0.07,0.16,-0.24,0.07,0.16,-0.24,1,Lying,4
2019-01-20,16:24:22,9.309999000000001,-0.52,-1.28,0.04,0.19999999,-0.31,0.04,0.19999999,-0.31,1,Lying,4
2019-01-20,16:24:22,9.019999499999999,-0.63,-1.3899999,0.04,0.19999999,-0.31,0.04,0.19999999,-0.31,1,Lying,4
2019-01-20,16:24:22,9.019999499999999,-0.63,-1.3899999,0.049999997000000004,0.21,-0.29,0.049999997000000004,0.21,-0.29,1,Lying,4
2019-01-20,16:24:22,9.059999000000001,-0.84999996,-1.56,0.049999997000000004,0.21,-0.29,0.049999997000000004,0.21,-0.29,1,Lying,4
2019-01-20,16:24:22,9.059999000000001,-0.84999996,-1.56,0.06,0.22,-0.26,0.06,0.22,-0.26,1,Lying,4
2019-01-20,16:24:22,9.429999,-0.69,-1.8599999,0.06,0.22,-0.26,0.06,0.22,-0.26,1,Lying,4
2019-01-20,16:24:22,9.429999,-0.69,-1.8599999,0.08,0.28,-0.19999999,0.08,0.28,-0.19999999,1,Lying,4
2019-01-20,16:24:22,9.16,-0.89,-2.23,0.08,0.28,-0.19999999,0.08,0.28,-0.19999999,1,Lying,4
2019-01-20,16:24:22,9.16,-0.89,-2.23,0.049999997000000004,0.57,-0.22,0.049999997000000004,0.57,-0.22,1,Lying,4
2019-01-20,16:24:22,9.679999,-0.45,-2.8,-0.04,0.78999996,-0.19999999,-0.04,0.78999996,-0.19999999,1,Lying,4
2019-01-20,16:24:22,9.679999,-0.45,-2.8,-0.04,0.78999996,-0.19999999,-0.04,0.78999996,-0.19999999,1,Lying,4
2019-01-20,16:24:22,9.549999,-0.27999997,-3.09,-0.04,0.78999996,-0.19999999,-0.04,0.78999996,-0.19999999,1,Lying,4
2019-01-20,16:24:22,9.549999,-0.27999997,-3.09,-0.29,1.24,-0.41,-0.29,1.24,-0.41,1,Lying,4
2019-01-20,16:24:22,10.11,0.70000005,-3.1999998,-0.29,1.24,-0.41,-0.29,1.24,-0.41,1,Lying,4
2019-01-20,16:24:22,10.11,0.70000005,-3.1999998,-0.48,1.5799999,-0.62,-0.48,1.5799999,-0.62,1,Lying,4
2019-01-20,16:24:22,9.679999,1.47,-2.1999998,-0.48,1.5799999,-0.62,-0.48,1.5799999,-0.62,1,Lying,4
2019-01-20,16:24:22,9.679999,1.47,-2.1999998,-0.95,2.18,-1.04,-0.95,2.18,-1.04,1,Lying,4
2019-01-20,16:24:22,9.25,1.8299999,0.73999995,-1.53,2.59,-1.28,-1.53,2.59,-1.28,1,Lying,4
2019-01-20,16:24:22,9.25,1.8299999,0.73999995,-1.53,2.59,-1.28,-1.53,2.59,-1.28,1,Lying,4
2019-01-20,16:24:22,6.27,0.90999997,2.44,-1.53,2.59,-1.28,-1.53,2.59,-1.28,1,Lying,4
2019-01-20,16:24:22,6.27,0.90999997,2.44,-1.9499999,3.72,-1.8399999,-1.9499999,3.72,-1.8399999,1,Lying,4
2019-01-20,16:24:22,4.59,1.49,5.41,-1.9499999,3.72,-1.8399999,-1.9499999,3.72,-1.8399999,1,Lying,4
2019-01-20,16:24:22,4.59,1.49,5.41,-1.99,3.1699998,-2.23,-1.99,3.1699998,-2.23,1,Lying,4
2019-01-20,16:24:22,4.17,7.93,-15.88,-1.99,3.1699998,-2.23,-1.99,3.1699998,-2.23,1,Lying,4
2019-01-20,16:24:22,4.17,7.93,-15.88,-0.55,2.03,-2.1399999,-0.55,2.03,-2.1399999,1,Lying,4
2019-01-20,16:24:22,0.90999997,-5.98,17.6,-0.55,2.03,-2.1399999,-0.55,2.03,-2.1399999,1,Lying,4
2019-01-20,16:24:22,0.90999997,-5.98,17.6,-6.8199997,-0.59,-2.22,-6.8199997,-0.59,-2.22,1,Lying,4
2019-01-20,16:24:22,-0.059999995,-6.2,11.99,-6.8199997,-0.59,-2.22,-6.8199997,-0.59,-2.22,1,Lying,4
2019-01-20,16:24:22,-0.059999995,-6.2,11.99,1.3299999,6.48,0.96999997,1.3299999,6.48,0.96999997,1,Lying,4
2019-01-20,16:24:22,-3.31,-0.14999998,4.97,1.3299999,6.48,0.96999997,1.3299999,6.48,0.96999997,1,Lying,4
2019-01-20,16:24:22,-3.31,-0.14999998,4.97,2.8899999,5.02,1.22,2.8899999,5.02,1.22,1,Lying,4
2019-01-20,16:24:22,-3.71,7.48,5.99,2.8899999,5.02,1.22,2.8899999,5.02,1.22,1,Lying,4
2019-01-20,16:24:22,-3.71,7.48,5.99,2.06,1.1,-0.21,2.06,1.1,-0.21,1,Lying,4
2019-01-20,16:24:22,-2.25,7.1,9.94,2.06,1.1,-0.21,2.06,1.1,-0.21,1,Lying,4
2019-01-20,16:24:22,-2.25,7.1,9.94,-0.52,-1.7199999,-0.74,-0.52,-1.7199999,-0.74,1,Lying,4
2019-01-20,16:24:22,0.34,1.5,7.0399994999999995,-0.52,-1.7199999,-0.74,-0.52,-1.7199999,-0.74,1,Lying,4
2019-01-20,16:24:22,0.34,1.5,7.0399994999999995,0.0,-1.18,-0.01,0.0,-1.18,-0.01,1,Lying,4
2019-01-20,16:24:22,3.9399998,0.99,8.42,0.0,-1.18,-0.01,0.0,-1.18,-0.01,1,Lying,4
2019-01-20,16:24:22,3.9399998,0.99,8.42,-0.45999998,-1.3199999,0.61,-0.45999998,-1.3199999,0.61,1,Lying,4
2019-01-20,16:24:22,5.0,2.83,8.389999000000001,-0.45999998,-1.3199999,0.61,-0.45999998,-1.3199999,0.61,1,Lying,4
2019-01-20,16:24:22,5.0,2.83,8.389999000000001,0.089999996,-1.1999999,0.04,0.089999996,-1.1999999,0.04,1,Lying,4
2019-01-20,16:24:22,4.05,1.78,9.25,0.089999996,-1.1999999,0.04,0.089999996,-1.1999999,0.04,1,Lying,4
2019-01-20,16:24:22,4.05,1.78,9.25,-0.17999999,-0.09999999400000001,-0.03,-0.17999999,-0.09999999400000001,-0.03,1,Lying,4
2019-01-20,16:24:22,1.8699999,1.73,8.66,-0.17999999,-0.09999999400000001,-0.03,-0.17999999,-0.09999999400000001,-0.03,1,Lying,4
2019-01-20,16:24:22,1.8699999,1.73,8.66,0.03,0.71999997,-0.06,0.03,0.71999997,-0.06,1,Lying,4
2019-01-20,16:24:23,0.96,1.8599999,8.54,0.03,0.71999997,-0.06,0.03,0.71999997,-0.06,1,Lying,4
2019-01-20,16:24:23,0.96,1.8599999,8.54,0.04,0.59,-0.01,0.04,0.59,-0.01,1,Lying,4
2019-01-20,16:24:23,1.2099999,1.75,8.62,0.04,0.59,-0.01,0.04,0.59,-0.01,1,Lying,4
2019-01-20,16:24:23,1.2099999,1.75,8.62,0.0,0.03,0.0,0.0,0.03,0.0,1,Lying,4
2019-01-20,16:24:23,2.32,2.06,8.42,0.0,0.03,0.0,0.0,0.03,0.0,1,Lying,4
2019-01-20,16:24:23,2.32,2.06,8.42,-0.02,-0.19999999,0.049999997000000004,-0.02,-0.19999999,0.049999997000000004,1,Lying,4
2019-01-20,16:24:23,2.51,1.94,8.589999,-0.02,-0.19999999,0.049999997000000004,-0.02,-0.19999999,0.049999997000000004,1,Lying,4
2019-01-20,16:24:23,2.51,1.94,8.589999,-0.06,-0.08,0.04,-0.06,-0.08,0.04,1,Lying,4
2019-01-20,16:24:23,2.29,1.75,8.889999000000001,-0.06,-0.08,0.04,-0.06,-0.08,0.04,1,Lying,4
2019-01-20,16:24:23,2.29,1.75,8.889999000000001,-0.07,0.06,0.03,-0.07,0.06,0.03,1,Lying,4
2019-01-20,16:24:23,1.79,1.79,8.71,-0.07,0.06,0.03,-0.07,0.06,0.03,1,Lying,4
2019-01-20,16:24:23,1.79,1.79,8.71,0.0,0.13,0.0,0.0,0.13,0.0,1,Lying,4
2019-01-20,16:24:23,2.04,1.8199999,8.599999,0.0,0.13,0.0,0.0,0.13,0.0,1,Lying,4
2019-01-20,16:24:23,2.04,1.8199999,8.599999,0.01,0.01,0.0,0.01,0.01,0.0,1,Lying,4
2019-01-20,16:24:23,2.1799998,1.8599999,8.65,0.01,0.01,0.0,0.01,0.01,0.0,1,Lying,4
2019-01-20,16:24:23,2.1799998,1.8599999,8.65,0.01,0.0,0.0,0.01,0.0,0.0,1,Lying,4
2019-01-20,16:24:23,2.08,1.9099998,8.549999,0.01,0.0,0.0,0.01,0.0,0.0,1,Lying,4
2019-01-20,16:24:23,2.08,1.9099998,8.549999,0.01,0.03,0.0,0.01,0.03,0.0,1,Lying,4
2019-01-20,16:24:23,1.77,1.8599999,8.66,0.01,0.03,0.0,0.01,0.03,0.0,1,Lying,4
2019-01-20,16:24:23,1.77,1.8599999,8.66,0.0,0.09999999400000001,0.0,0.0,0.09999999400000001,0.0,1,Lying,4
2019-01-20,16:24:23,1.8699999,1.8499999,8.719999000000001,0.0,0.09999999400000001,0.0,0.0,0.09999999400000001,0.0,1,Lying,4
2019-01-20,16:24:23,1.8699999,1.8499999,8.719999000000001,0.01,0.049999997000000004,0.01,0.01,0.049999997000000004,0.01,1,Lying,4
2019-01-20,16:24:23,1.9699999,1.8899999,8.65,0.01,0.049999997000000004,0.01,0.01,0.049999997000000004,0.01,1,Lying,4
2019-01-20,16:24:23,1.9699999,1.8899999,8.65,0.03,0.04,0.01,0.03,0.04,0.01,1,Lying,4
2019-01-20,16:24:23,1.9,1.9099998,8.549999,0.03,0.04,0.01,0.03,0.04,0.01,1,Lying,4
2019-01-20,16:24:23,1.9,1.9099998,8.549999,0.03,0.049999997000000004,0.01,0.03,0.049999997000000004,0.01,1,Lying,4
2019-01-20,16:24:23,1.8699999,1.8499999,8.769999499999999,0.03,0.049999997000000004,0.01,0.03,0.049999997000000004,0.01,1,Lying,4
2019-01-20,16:24:23,1.8699999,1.8499999,8.769999499999999,0.03,0.04,0.0,0.03,0.04,0.0,1,Lying,4
2019-01-20,16:24:23,1.89,1.9200001,8.589999,0.03,0.04,0.0,0.03,0.04,0.0,1,Lying,4
2019-01-20,16:24:23,1.89,1.9200001,8.589999,0.07,0.02,-0.01,0.07,0.02,-0.01,1,Lying,4
2019-01-20,16:24:23,1.8699999,2.04,8.42,0.07,0.02,-0.01,0.07,0.02,-0.01,1,Lying,4
2019-01-20,16:24:23,1.8699999,2.04,8.42,0.06,0.04,-0.01,0.06,0.04,-0.01,1,Lying,4
2019-01-20,16:24:23,1.81,2.1399999,8.58,0.06,0.04,-0.01,0.06,0.04,-0.01,1,Lying,4
2019-01-20,16:24:23,1.81,2.1399999,8.58,0.03,0.02,0.0,0.03,0.02,0.0,1,Lying,4
2019-01-20,16:24:23,1.7199999,2.05,8.62,0.03,0.02,0.0,0.03,0.02,0.0,1,Lying,4
2019-01-20,16:24:23,1.7199999,2.05,8.62,0.02,0.01,0.0,0.02,0.01,0.0,1,Lying,4
2019-01-20,16:24:23,1.7099999,1.9200001,8.73,0.02,0.01,0.0,0.02,0.01,0.0,1,Lying,4
2019-01-20,16:24:23,1.7099999,1.9200001,8.73,0.02,0.049999997000000004,0.01,0.02,0.049999997000000004,0.01,1,Lying,4
2019-01-20,16:24:23,1.77,2.02,8.58,0.02,0.049999997000000004,0.01,0.02,0.049999997000000004,0.01,1,Lying,4
2019-01-20,16:24:23,1.77,2.02,8.58,0.04,0.049999997000000004,0.0,0.04,0.049999997000000004,0.0,1,Lying,4
2019-01-20,16:24:23,2.01,2.1,8.5,0.04,0.049999997000000004,0.0,0.04,0.049999997000000004,0.0,1,Lying,4
2019-01-20,16:24:23,2.01,2.1,8.5,0.01,-0.04,0.0,0.01,-0.04,0.0,1,Lying,4
2019-01-20,16:24:23,1.8299999,2.02,8.66,0.01,-0.04,0.0,0.01,-0.04,0.0,1,Lying,4
2019-01-20,16:24:24,1.8299999,2.02,8.66,0.0,0.01,0.0,0.0,0.01,0.0,1,Lying,4
2019-01-20,16:24:24,1.6199999,2.04,8.67,0.0,0.01,0.0,0.0,0.01,0.0,1,Lying,4
2019-01-20,16:24:24,1.6199999,2.04,8.67,0.0,0.03,0.0,0.0,0.03,0.0,1,Lying,4
2019-01-20,16:24:24,1.5999999,2.08,8.48,0.0,0.03,0.0,0.0,0.03,0.0,1,Lying,4
2019-01-20,16:24:24,1.5999999,2.08,8.48,0.0,-0.01,0.0,0.0,-0.01,0.0,1,Lying,4
2019-01-20,16:24:24,1.9399998999999999,2.1299999,8.559999000000001,0.0,-0.01,0.0,0.0,-0.01,0.0,1,Lying,4
2019-01-20,16:24:24,1.9399998999999999,2.1299999,8.559999000000001,-0.03,-0.04,0.02,-0.03,-0.04,0.02,1,Lying,4
2019-01-20,16:24:24,1.89,1.94,8.73,-0.03,-0.04,0.02,-0.03,-0.04,0.02,1,Lying,4
2019-01-20,16:24:24,1.89,1.94,8.73,-0.049999997000000004,0.0,0.01,-0.049999997000000004,0.0,0.01,1,Lying,4
2019-01-20,16:24:24,1.8399999,1.94,8.69,-0.049999997000000004,0.0,0.01,-0.049999997000000004,0.0,0.01,1,Lying,4
2019-01-20,16:24:24,1.8399999,1.94,8.69,-0.02,0.0,0.0,-0.02,0.0,0.0,1,Lying,4
2019-01-20,16:24:24,1.8,1.94,8.589999,-0.02,0.0,0.0,-0.02,0.0,0.0,1,Lying,4
2019-01-20,16:24:24,1.8,1.94,8.589999,-0.01,-0.02,0.0,-0.01,-0.02,0.0,1,Lying,4
2019-01-20,16:24:24,1.89,1.97,8.53,-0.01,-0.02,0.0,-0.01,-0.02,0.0,1,Lying,4
2019-01-20,16:24:24,1.89,1.97,8.53,-0.02,-0.03,0.0,-0.02,-0.03,0.0,1,Lying,4
2019-01-20,16:24:24,1.92,1.98,8.589999,-0.02,-0.03,0.0,-0.02,-0.03,0.0,1,Lying,4
2019-01-20,16:24:24,1.92,1.98,8.589999,-0.03,-0.049999997000000004,0.0,-0.03,-0.049999997000000004,0.0,1,Lying,4
2019-01-20,16:24:24,1.9399998999999999,1.8799999,8.73,-0.03,-0.049999997000000004,0.0,-0.03,-0.049999997000000004,0.0,1,Lying,4
2019-01-20,16:24:24,1.9399998999999999,1.8799999,8.73,-0.03,-0.02,0.0,-0.03,-0.02,0.0,1,Lying,4
2019-01-20,16:24:24,1.8199999,1.97,8.53,-0.03,-0.02,0.0,-0.03,-0.02,0.0,1,Lying,4
2019-01-20,16:24:24,1.8199999,1.97,8.53,0.0,-0.01,0.0,0.0,-0.01,0.0,1,Lying,4
2019-01-20,16:24:24,1.79,1.98,8.53,0.0,-0.01,0.0,0.0,-0.01,0.0,1,Lying,4
2019-01-20,16:24:24,1.79,1.98,8.53,0.0,-0.04,0.0,0.0,-0.04,0.0,1,Lying,4
2019-01-20,16:24:24,2.06,1.8199999,8.7,0.0,-0.04,0.0,0.0,-0.04,0.0,1,Lying,4
2019-01-20,16:24:24,2.06,1.8199999,8.7,-0.03,-0.03,0.01,-0.03,-0.03,0.01,1,Lying,4
2019-01-20,16:24:24,2.02,1.9200001,8.65,-0.03,-0.03,0.01,-0.03,-0.03,0.01,1,Lying,4
2019-01-20,16:24:24,2.02,1.9200001,8.65,-0.01,-0.03,0.0,-0.01,-0.03,0.0,1,Lying,4
2019-01-20,16:24:24,2.08,1.9200001,8.62,-0.01,-0.03,0.0,-0.01,-0.03,0.0,1,Lying,4
2019-01-20,16:24:24,2.08,1.9200001,8.62,-0.01,-0.02,0.0,-0.01,-0.02,0.0,1,Lying,4
2019-01-20,16:24:24,1.9999999,1.8899999,8.599999,-0.01,-0.02,0.0,-0.01,-0.02,0.0,1,Lying,4
2019-01-20,16:24:24,1.9999999,1.8899999,8.599999,-0.01,-0.01,0.0,-0.01,-0.01,0.0,1,Lying,4
2019-01-20,16:24:24,1.9399998999999999,1.8999999,8.589999,-0.01,-0.01,0.0,-0.01,-0.01,0.0,1,Lying,4
2019-01-20,16:24:24,1.9399998999999999,1.8999999,8.589999,0.0,-0.02,0.0,0.0,-0.02,0.0,1,Lying,4
2019-01-20,16:24:24,1.9699999,1.8999999,8.62,0.0,-0.02,0.0,0.0,-0.02,0.0,1,Lying,4
2019-01-20,16:24:24,1.9699999,1.8999999,8.62,-0.01,-0.02,0.0,-0.01,-0.02,0.0,1,Lying,4
2019-01-20,16:24:24,2.09,1.9200001,8.61,-0.01,-0.02,0.0,-0.01,-0.02,0.0,1,Lying,4
2019-01-20,16:24:24,2.09,1.9200001,8.61,-0.01,-0.01,0.0,-0.01,-0.01,0.0,1,Lying,4
2019-01-20,16:24:24,2.08,1.9099998,8.66,-0.01,-0.01,0.0,-0.01,-0.01,0.0,1,Lying,4
2019-01-20,16:24:24,2.08,1.9099998,8.66,0.0,-0.01,0.0,0.0,-0.01,0.0,1,Lying,4
2019-01-20,16:24:24,2.09,1.8699999,8.629999,0.0,-0.01,0.0,0.0,-0.01,0.0,1,Lying,4
2019-01-20,16:24:24,2.09,1.8699999,8.629999,0.0,0.0,0.0,0.0,0.0,0.0,1,Lying,4
2019-01-20,16:24:24,2.11,1.8299999,8.809999000000001,0.0,0.0,0.0,0.0,0.0,0.0,1,Lying,4
2019-01-20,16:24:25,2.11,1.8299999,8.809999000000001,0.0,0.02,0.0,0.0,0.02,0.0,1,Lying,4
2019-01-20,16:24:25,1.93,1.8999999,8.57,0.0,0.02,0.0,0.0,0.02,0.0,1,Lying,4
2019-01-20,16:24:25,1.93,1.8999999,8.57,0.01,0.049999997000000004,0.0,0.01,0.049999997000000004,0.0,1,Lying,4
2019-01-20,16:24:25,2.05,1.94,8.66,0.01,0.049999997000000004,0.0,0.01,0.049999997000000004,0.0,1,Lying,4
2019-01-20,16:24:25,2.05,1.94,8.66,0.02,0.0,0.0,0.02,0.0,0.0,1,Lying,4
2019-01-20,16:24:25,2.01,1.95,8.549999,0.01,0.03,0.0,0.01,0.03,0.0,1,Lying,4
2019-01-20,16:24:25,2.01,1.95,8.549999,0.01,0.03,0.0,0.01,0.03,0.0,1,Lying,4
2019-01-20,16:24:25,1.8599999,1.94,8.589999,0.01,0.03,0.0,0.01,0.03,0.0,1,Lying,4
2019-01-20,16:24:25,1.8599999,1.94,8.589999,0.02,0.04,0.0,0.02,0.04,0.0,1,Lying,4
2019-01-20,16:24:25,1.93,1.8999999,8.69,0.02,0.04,0.0,0.02,0.04,0.0,1,Lying,4
2019-01-20,16:24:25,1.93,1.8999999,8.69,0.02,0.03,0.0,0.02,0.03,0.0,1,Lying,4
2019-01-20,16:24:25,1.9999999,1.94,8.629999,0.02,0.03,0.0,0.02,0.03,0.0,1,Lying,4
2019-01-20,16:24:25,1.9999999,1.94,8.629999,0.02,0.03,0.0,0.02,0.03,0.0,1,Lying,4
2019-01-20,16:24:25,1.9699999,2.03,8.54,0.03,0.02,0.0,0.03,0.02,0.0,1,Lying,4
2019-01-20,16:24:25,1.9699999,2.03,8.54,0.03,0.02,0.0,0.03,0.02,0.0,1,Lying,4
2019-01-20,16:24:25,1.9,1.94,8.639999000000001,0.03,0.02,0.0,0.03,0.02,0.0,1,Lying,4
2019-01-20,16:24:25,1.9,1.94,8.639999000000001,0.01,0.049999997000000004,0.0,0.01,0.049999997000000004,0.0,1,Lying,4
2019-01-20,16:24:25,1.78,2.0,8.599999,0.01,0.049999997000000004,0.0,0.01,0.049999997000000004,0.0,1,Lying,4
2019-01-20,16:24:25,1.78,2.0,8.599999,0.01,0.06,0.0,0.01,0.06,0.0,1,Lying,4
2019-01-20,16:24:25,1.8199999,2.01,8.57,0.01,0.06,0.0,0.01,0.06,0.0,1,Lying,4
2019-01-20,16:24:25,1.8199999,2.01,8.57,0.01,0.04,0.0,0.01,0.04,0.0,1,Lying,4
2019-01-20,16:24:25,1.92,1.97,8.69,0.01,0.04,0.0,0.01,0.04,0.0,1,Lying,4
2019-01-20,16:24:25,1.92,1.97,8.69,0.02,0.04,0.0,0.02,0.04,0.0,1,Lying,4
2019-01-20,16:24:25,1.8799999,2.02,8.589999,0.02,0.04,0.0,0.02,0.04,0.0,1,Lying,4
2019-01-20,16:24:25,1.8799999,2.02,8.589999,0.049999997000000004,0.04,0.0,0.049999997000000004,0.04,0.0,1,Lying,4
2019-01-20,16:24:25,1.9,2.12,8.4,0.049999997000000004,0.04,0.0,0.049999997000000004,0.04,0.0,1,Lying,4
2019-01-20,16:24:25,1.9,2.12,8.4,0.07,0.01,-0.02,0.07,0.01,-0.02,1,Lying,4
2019-01-20,16:24:25,1.8799999,2.11,8.49,0.07,0.01,-0.02,0.07,0.01,-0.02,1,Lying,4
2019-01-20,16:24:25,1.8799999,2.11,8.49,0.03,0.01,-0.02,0.03,0.01,-0.02,1,Lying,4
2019-01-20,16:24:25,1.9699999,1.99,8.7,0.03,0.01,-0.02,0.03,0.01,-0.02,1,Lying,4
2019-01-20,16:24:25,1.9699999,1.99,8.7,-0.01,0.03,0.0,-0.01,0.03,0.0,1,Lying,4
2019-01-20,16:24:25,1.68,2.1399999,8.49,-0.01,0.03,0.0,-0.01,0.03,0.0,1,Lying,4
2019-01-20,16:24:25,1.68,2.1399999,8.49,0.02,0.06,-0.03,0.02,0.06,-0.03,1,Lying,4
2019-01-20,16:24:25,1.55,2.18,8.48,0.02,0.06,-0.03,0.02,0.06,-0.03,1,Lying,4
2019-01-20,16:24:25,1.55,2.18,8.48,0.03,0.03,-0.04,0.03,0.03,-0.04,1,Lying,4
2019-01-20,16:24:25,1.5799999,2.17,8.599999,0.03,0.03,-0.04,0.03,0.03,-0.04,1,Lying,4
2019-01-20,16:24:25,1.5799999,2.17,8.599999,0.01,0.0,-0.04,0.01,0.0,-0.04,1,Lying,4
2019-01-20,16:24:25,1.4799999,2.0,8.519999499999999,0.01,0.0,-0.04,0.01,0.0,-0.04,1,Lying,4
2019-01-20,16:24:25,1.4799999,2.0,8.519999499999999,0.02,0.01,-0.03,0.02,0.01,-0.03,1,Lying,4
2019-01-20,16:24:25,2.09,2.1299999,8.67,0.02,0.01,-0.03,0.02,0.01,-0.03,1,Lying,4
2019-01-20,16:24:25,2.09,2.1299999,8.67,0.01,0.04,0.03,0.01,0.04,0.03,1,Lying,4
2019-01-20,16:24:25,0.8899999,2.6599998,7.89,0.01,0.04,0.03,0.01,0.04,0.03,1,Lying,4
2019-01-20,16:24:25,0.8899999,2.6599998,7.89,0.089999996,-0.03,-0.08,0.089999996,-0.03,-0.08,1,Lying,4
2019-01-20,16:24:26,0.8899999,2.6599998,7.89,0.089999996,-0.03,-0.08,0.089999996,-0.03,-0.08,1,Lying,4
2019-01-20,16:24:26,2.54,1.9200001,9.089999,0.089999996,-0.03,-0.08,0.089999996,-0.03,-0.08,1,Lying,4
2019-01-20,16:24:26,2.54,1.9200001,9.089999,-0.12,-0.11,0.13,-0.12,-0.11,0.13,1,Lying,4
2019-01-20,16:24:26,1.6199999,2.22,8.259999,-0.12,-0.11,0.13,-0.12,-0.11,0.13,1,Lying,4
2019-01-20,16:24:26,1.6199999,2.22,8.259999,0.06,0.03,-0.01,0.06,0.03,-0.01,1,Lying,4
2019-01-20,16:24:26,1.77,1.99,8.839999,0.06,0.03,-0.01,0.06,0.03,-0.01,1,Lying,4
2019-01-20,16:24:26,1.77,1.99,8.839999,-0.06,-0.03,0.0,-0.06,-0.03,0.0,1,Lying,4
2019-01-20,16:24:26,2.02,2.07,8.889999000000001,-0.06,-0.03,0.0,-0.06,-0.03,0.0,1,Lying,4
2019-01-20,16:24:26,2.02,2.07,8.889999000000001,-0.01,-0.03,0.01,-0.01,-0.03,0.01,1,Lying,4
2019-01-20,16:24:26,1.8599999,2.1299999,8.62,-0.01,-0.03,0.01,-0.01,-0.03,0.01,1,Lying,4
2019-01-20,16:24:26,1.8599999,2.1299999,8.62,0.03,0.02,0.0,0.03,0.02,0.0,1,Lying,4
2019-01-20,16:24:26,1.6899998999999999,2.1599998,8.4,0.03,0.02,0.0,0.03,0.02,0.0,1,Lying,4
2019-01-20,16:24:26,1.6899998999999999,2.1599998,8.4,0.06,0.03,-0.02,0.06,0.03,-0.02,1,Lying,4
2019-01-20,16:24:26,1.8199999,2.04,8.91,0.06,0.03,-0.02,0.06,0.03,-0.02,1,Lying,4
2019-01-20,16:24:26,1.8199999,2.04,8.91,0.07,-0.02,-0.04,0.07,-0.02,-0.04,1,Lying,4
2019-01-20,16:24:26,1.65,2.1299999,8.2,0.07,-0.02,-0.04,0.07,-0.02,-0.04,1,Lying,4
2019-01-20,16:24:26,1.65,2.1299999,8.2,0.25,-0.04,-0.09999999400000001,0.25,-0.04,-0.09999999400000001,1,Lying,4
2019-01-20,16:24:26,1.3499999,2.53,7.759999799999999,0.25,-0.04,-0.09999999400000001,0.25,-0.04,-0.09999999400000001,1,Lying,4
2019-01-20,16:24:26,1.3499999,2.53,7.759999799999999,0.31,-0.14,-0.11,0.31,-0.14,-0.11,1,Lying,4
2019-01-20,16:24:26,1.9499999,2.77,8.5,0.31,-0.14,-0.11,0.31,-0.14,-0.11,1,Lying,4
2019-01-20,16:24:26,1.9499999,2.77,8.5,-0.04,-0.22,0.02,-0.04,-0.22,0.02,1,Lying,4
2019-01-20,16:24:26,2.9399998,2.2,9.11,-0.04,-0.22,0.02,-0.04,-0.22,0.02,1,Lying,4
2019-01-20,16:24:26,2.9399998,2.2,9.11,-0.049999997000000004,-0.19,0.04,-0.049999997000000004,-0.19,0.04,1,Lying,4
2019-01-20,16:24:26,1.4399998999999999,2.31,8.07,-0.049999997000000004,-0.19,0.04,-0.049999997000000004,-0.19,0.04,1,Lying,4
2019-01-20,16:24:26,1.4399998999999999,2.31,8.07,0.089999996,0.14,-0.07,0.089999996,0.14,-0.07,1,Lying,4
2019-01-20,16:24:26,1.66,2.45,8.45,0.089999996,0.14,-0.07,0.089999996,0.14,-0.07,1,Lying,4
2019-01-20,16:24:26,1.66,2.45,8.45,-0.06,0.07,0.049999997000000004,-0.06,0.07,0.049999997000000004,1,Lying,4
2019-01-20,16:24:26,1.89,2.04,7.9799995,-0.06,0.07,0.049999997000000004,-0.06,0.07,0.049999997000000004,1,Lying,4
2019-01-20,16:24:26,1.89,2.04,7.9799995,0.03,0.01,-0.08,0.03,0.01,-0.08,1,Lying,4
2019-01-20,16:24:26,1.4,3.0,7.5399994999999995,0.03,0.01,-0.08,0.03,0.01,-0.08,1,Lying,4
2019-01-20,16:24:26,1.4,3.0,7.5399994999999995,0.049999997000000004,-0.14,-0.03,0.049999997000000004,-0.14,-0.03,1,Lying,4
2019-01-20,16:24:26,2.76,2.7,8.94,0.049999997000000004,-0.14,-0.03,0.049999997000000004,-0.14,-0.03,1,Lying,4
2019-01-20,16:24:26,2.76,2.7,8.94,-0.14,-0.22999999,0.12,-0.14,-0.22999999,0.12,1,Lying,4
2019-01-20,16:24:26,2.56,2.24,8.889999000000001,-0.14,-0.22999999,0.12,-0.14,-0.22999999,0.12,1,Lying,4
2019-01-20,16:24:26,2.56,2.24,8.889999000000001,0.08,0.08,0.049999997000000004,0.08,0.08,0.049999997000000004,1,Lying,4
2019-01-20,16:24:26,1.6099999,1.5,7.8799996,0.08,0.08,0.049999997000000004,0.08,0.08,0.049999997000000004,1,Lying,4
2019-01-20,16:24:26,1.6099999,1.5,7.8799996,0.0,0.11,-0.09999999400000001,0.0,0.11,-0.09999999400000001,1,Lying,4
2019-01-20,16:24:26,0.59999996,3.37,6.809999499999999,0.0,0.11,-0.09999999400000001,0.0,0.11,-0.09999999400000001,1,Lying,4
2019-01-20,16:24:26,0.59999996,3.37,6.809999499999999,0.09999999400000001,0.13,-0.17,0.09999999400000001,0.13,-0.17,1,Lying,4
2019-01-20,16:24:26,3.29,2.1299999,9.96,0.09999999400000001,0.13,-0.17,0.09999999400000001,0.13,-0.17,1,Lying,4
2019-01-20,16:24:26,3.29,2.1299999,9.96,-0.25,-0.39,0.16,-0.25,-0.39,0.16,1,Lying,4
2019-01-20,16:24:27,3.03,2.09,9.44,-0.25,-0.39,0.16,-0.25,-0.39,0.16,1,Lying,4
2019-01-20,16:24:27,3.03,2.09,9.44,0.02,-0.04,0.049999997000000004,0.02,-0.04,0.049999997000000004,1,Lying,4
2019-01-20,16:24:27,1.8599999,2.57,7.5899997,0.02,-0.04,0.049999997000000004,0.02,-0.04,0.049999997000000004,1,Lying,4
2019-01-20,16:24:27,1.8599999,2.57,7.5899997,0.12,0.24,-0.049999997000000004,0.12,0.24,-0.049999997000000004,1,Lying,4
2019-01-20,16:24:27,1.2099999,1.95,7.96,0.12,0.24,-0.049999997000000004,0.12,0.24,-0.049999997000000004,1,Lying,4
2019-01-20,16:24:27,1.2099999,1.95,7.96,-0.02,0.21,-0.08,-0.02,0.21,-0.08,1,Lying,4
2019-01-20,16:24:27,1.7199999,2.61,8.269999499999999,-0.02,0.21,-0.08,-0.02,0.21,-0.08,1,Lying,4
2019-01-20,16:24:27,1.7199999,2.61,8.269999499999999,-0.04,-0.12,-0.01,-0.04,-0.12,-0.01,1,Lying,4
2019-01-20,16:24:27,3.33,2.24,9.69,-0.04,-0.12,-0.01,-0.04,-0.12,-0.01,1,Lying,4
2019-01-20,16:24:27,3.33,2.24,9.69,-0.14,-0.35,0.13,-0.14,-0.35,0.13,1,Lying,4
2019-01-20,16:24:27,2.4499998,2.02,9.0,-0.14,-0.35,0.13,-0.14,-0.35,0.13,1,Lying,4
2019-01-20,16:24:27,2.4499998,2.02,9.0,0.06,0.089999996,-0.049999997000000004,0.06,0.089999996,-0.049999997000000004,1,Lying,4
2019-01-20,16:24:27,1.25,2.52,7.5899997,0.06,0.089999996,-0.049999997000000004,0.06,0.089999996,-0.049999997000000004,1,Lying,4
2019-01-20,16:24:27,1.25,2.52,7.5899997,0.12,0.13,-0.06,0.12,0.13,-0.06,1,Lying,4
2019-01-20,16:24:27,1.8299999,2.61,7.9699993000000005,0.12,0.13,-0.06,0.12,0.13,-0.06,1,Lying,4
2019-01-20,16:24:27,1.8299999,2.61,7.9699993000000005,-0.049999997000000004,-0.089999996,0.02,-0.049999997000000004,-0.089999996,0.02,1,Lying,4
2019-01-20,16:24:27,2.6999998,2.12,9.219999000000001,-0.049999997000000004,-0.089999996,0.02,-0.049999997000000004,-0.089999996,0.02,1,Lying,4
2019-01-20,16:24:27,2.6999998,2.12,9.219999000000001,-0.07,-0.06,0.01,-0.07,-0.06,0.01,1,Lying,4
2019-01-20,16:24:27,1.7499999,2.24,8.759999,-0.07,-0.06,0.01,-0.07,-0.06,0.01,1,Lying,4
2019-01-20,16:24:27,1.7499999,2.24,8.759999,0.04,0.14,-0.049999997000000004,0.04,0.14,-0.049999997000000004,1,Lying,4
2019-01-20,16:24:27,1.43,2.3899999,8.21,0.04,0.14,-0.049999997000000004,0.04,0.14,-0.049999997000000004,1,Lying,4
2019-01-20,16:24:27,1.43,2.3899999,8.21,0.089999996,0.089999996,-0.03,0.089999996,0.089999996,-0.03,1,Lying,4
2019-01-20,16:24:27,2.35,2.4099998,8.42,0.089999996,0.089999996,-0.03,0.089999996,0.089999996,-0.03,1,Lying,4
2019-01-20,16:24:27,2.35,2.4099998,8.42,-0.01,-0.13,0.02,-0.01,-0.13,0.02,1,Lying,4
2019-01-20,16:24:27,2.07,2.44,8.299999,-0.01,-0.13,0.02,-0.01,-0.13,0.02,1,Lying,4
2019-01-20,16:24:27,2.07,2.44,8.299999,0.0,-0.07,-0.03,0.0,-0.07,-0.03,1,Lying,4
2019-01-20,16:24:27,2.1299999,2.6,8.339999,0.0,-0.07,-0.03,0.0,-0.07,-0.03,1,Lying,4
2019-01-20,16:24:27,2.1299999,2.6,8.339999,-0.01,0.0,0.01,-0.01,0.0,0.01,1,Lying,4
2019-01-20,16:24:27,2.1999998,2.37,8.87,-0.01,0.0,0.01,-0.01,0.0,0.01,1,Lying,4
2019-01-20,16:24:27,2.1999998,2.37,8.87,-0.049999997000000004,0.01,0.03,-0.049999997000000004,0.01,0.03,1,Lying,4
2019-01-20,16:24:27,2.37,2.26,8.679999,-0.049999997000000004,0.01,0.03,-0.049999997000000004,0.01,0.03,1,Lying,4
2019-01-20,16:24:27,2.37,2.26,8.679999,-0.02,0.0,0.02,-0.02,0.0,0.02,1,Lying,4
2019-01-20,16:24:27,1.77,2.3799999,8.129999,-0.02,0.0,0.02,-0.02,0.0,0.02,1,Lying,4
2019-01-20,16:24:27,1.77,2.3799999,8.129999,0.02,0.089999996,-0.02,0.02,0.089999996,-0.02,1,Lying,4
2019-01-20,16:24:27,2.05,2.29,8.58,0.02,0.089999996,-0.02,0.02,0.089999996,-0.02,1,Lying,4
2019-01-20,16:24:27,2.05,2.29,8.58,-0.01,-0.04,0.0,-0.01,-0.04,0.0,1,Lying,4
2019-01-20,16:24:27,2.1799998,2.55,8.46,-0.01,-0.04,0.0,-0.01,-0.04,0.0,1,Lying,4
2019-01-20,16:24:27,2.1799998,2.55,8.46,0.01,-0.049999997000000004,0.0,0.01,-0.049999997000000004,0.0,1,Lying,4
2019-01-20,16:24:27,2.22,2.33,8.679999,0.01,-0.049999997000000004,0.0,0.01,-0.049999997000000004,0.0,1,Lying,4
2019-01-20,16:24:27,2.22,2.33,8.679999,-0.01,-0.01,0.0,-0.01,-0.01,0.0,1,Lying,4
2019-01-20,16:24:27,1.68,2.44,8.179999,-0.01,-0.01,0.0,-0.01,-0.01,0.0,1,Lying,4
2019-01-20,16:24:27,1.68,2.44,8.179999,0.03,0.08,-0.02,0.03,0.08,-0.02,1,Lying,4
2019-01-20,16:24:28,2.1699998,2.44,8.44,0.03,0.08,-0.02,0.03,0.08,-0.02,1,Lying,4
2019-01-20,16:24:28,2.1699998,2.44,8.44,-0.04,-0.02,0.02,-0.04,-0.02,0.02,1,Lying,4
2019-01-20,16:24:28,2.28,2.35,8.65,-0.04,-0.02,0.02,-0.04,-0.02,0.02,1,Lying,4
2019-01-20,16:24:28,2.28,2.35,8.65,-0.03,0.02,0.01,-0.03,0.02,0.01,1,Lying,4
2019-01-20,16:24:28,1.8799999,2.34,8.549999,-0.03,0.02,0.01,-0.03,0.02,0.01,1,Lying,4
2019-01-20,16:24:28,1.8799999,2.34,8.549999,0.0,0.12,-0.01,0.0,0.12,-0.01,1,Lying,4
2019-01-20,16:24:28,1.67,2.4099998,8.389999000000001,0.0,0.12,-0.01,0.0,0.12,-0.01,1,Lying,4
2019-01-20,16:24:28,1.67,2.4099998,8.389999000000001,0.01,0.089999996,-0.02,0.01,0.089999996,-0.02,1,Lying,4
2019-01-20,16:24:28,2.21,2.3799999,8.57,0.01,0.089999996,-0.02,0.01,0.089999996,-0.02,1,Lying,4
2019-01-20,16:24:28,2.21,2.3799999,8.57,-0.01,-0.01,0.0,-0.01,-0.01,0.0,1,Lying,4
2019-01-20,16:24:28,2.26,2.35,8.71,-0.01,-0.01,0.0,-0.01,-0.01,0.0,1,Lying,4
2019-01-20,16:24:28,2.26,2.35,8.71,-0.02,0.11,-0.049999997000000004,-0.02,0.11,-0.049999997000000004,1,Lying,4
2019-01-20,16:24:28,1.5999999,2.36,8.429999,-0.02,0.11,-0.049999997000000004,-0.02,0.11,-0.049999997000000004,1,Lying,4
2019-01-20,16:24:28,1.5999999,2.36,8.429999,0.0,0.31,-0.08,0.0,0.31,-0.08,1,Lying,4
2019-01-20,16:24:28,1.3199999,2.4199998,8.36,0.0,0.31,-0.08,0.0,0.31,-0.08,1,Lying,4
2019-01-20,16:24:28,1.3199999,2.4199998,8.36,0.0,0.31,-0.04,0.0,0.31,-0.04,1,Lying,4
2019-01-20,16:24:28,1.2399999,2.3899999,8.4,0.0,0.31,-0.04,0.0,0.31,-0.04,1,Lying,4
2019-01-20,16:24:28,1.2399999,2.3899999,8.4,-0.01,0.19999999,0.0,-0.01,0.19999999,0.0,1,Lying,4
2019-01-20,16:24:28,1.3,2.26,8.74,-0.01,0.19999999,0.0,-0.01,0.19999999,0.0,1,Lying,4
2019-01-20,16:24:28,1.3,2.26,8.74,-0.02,0.11,0.02,-0.02,0.11,0.02,1,Lying,4
2019-01-20,16:24:28,1.27,2.24,8.719999000000001,-0.02,0.11,0.02,-0.02,0.11,0.02,1,Lying,4
2019-01-20,16:24:28,1.27,2.24,8.719999000000001,0.04,0.06,0.02,0.04,0.06,0.02,1,Lying,4
2019-01-20,16:24:28,1.15,2.36,8.45,0.04,0.06,0.02,0.04,0.06,0.02,1,Lying,4
2019-01-20,16:24:28,1.15,2.36,8.45,0.17999999,-0.07,-0.03,0.17999999,-0.07,-0.03,1,Lying,4
2019-01-20,16:24:28,1.6899998999999999,2.95,7.7699995,0.17999999,-0.07,-0.03,0.17999999,-0.07,-0.03,1,Lying,4
2019-01-20,16:24:28,1.6899998999999999,2.95,7.7699995,0.089999996,-0.39999998,0.049999997000000004,0.089999996,-0.39999998,0.049999997000000004,1,Lying,4
2019-01-20,16:24:28,2.59,2.23,9.33,-0.089999996,-0.34,0.06,-0.089999996,-0.34,0.06,1,Lying,4
2019-01-20,16:24:28,2.59,2.23,9.33,-0.089999996,-0.34,0.06,-0.089999996,-0.34,0.06,1,Lying,4
2019-01-20,16:24:28,2.02,2.43,8.65,-0.089999996,-0.34,0.06,-0.089999996,-0.34,0.06,1,Lying,4
2019-01-20,16:24:28,2.02,2.43,8.65,0.0,0.13,0.01,0.0,0.13,0.01,1,Lying,4
2019-01-20,16:24:28,1.54,2.6399999,8.059999000000001,0.0,0.13,0.01,0.0,0.13,0.01,1,Lying,4
2019-01-20,16:24:28,1.54,2.6399999,8.059999000000001,0.02,0.22,-0.03,0.02,0.22,-0.03,1,Lying,4
2019-01-20,16:24:28,1.28,2.4099998,7.96,0.02,0.22,-0.03,0.02,0.22,-0.03,1,Lying,4
2019-01-20,16:24:28,1.28,2.4099998,7.96,0.01,0.11,-0.03,0.01,0.11,-0.03,1,Lying,4
2019-01-20,16:24:28,1.5999999,2.51,8.509999,0.01,0.11,-0.03,0.01,0.11,-0.03,1,Lying,4
2019-01-20,16:24:28,1.5999999,2.51,8.509999,-0.04,0.0,0.02,-0.04,0.0,0.02,1,Lying,4
2019-01-20,16:24:28,1.9,2.28,9.059999000000001,-0.04,0.0,0.02,-0.04,0.0,0.02,1,Lying,4
2019-01-20,16:24:28,1.9,2.28,9.059999000000001,-0.089999996,-0.02,0.0,-0.089999996,-0.02,0.0,1,Lying,4
2019-01-20,16:24:28,1.8499999,2.28,8.98,-0.089999996,-0.02,0.0,-0.089999996,-0.02,0.0,1,Lying,4
2019-01-20,16:24:28,1.8499999,2.28,8.98,-0.01,0.11,-0.01,-0.01,0.11,-0.01,1,Lying,4
2019-01-20,16:24:28,1.27,2.51,8.259999,-0.01,0.11,-0.01,-0.01,0.11,-0.01,1,Lying,4
2019-01-20,16:24:28,1.27,2.51,8.259999,0.03,0.22999999,-0.02,0.03,0.22999999,-0.02,1,Lying,4
2019-01-20,16:24:28,1.5799999,2.54,8.2,0.03,0.22999999,-0.02,0.03,0.22999999,-0.02,1,Lying,4
2019-01-20,16:24:29,1.5799999,2.54,8.2,0.01,0.0,0.0,0.01,0.0,0.0,1,Lying,4
2019-01-20,16:24:29,1.5999999,2.22,8.629999,0.01,0.0,0.0,0.01,0.0,0.0,1,Lying,4
2019-01-20,16:24:29,1.5999999,2.22,8.629999,0.0,0.01,0.0,0.0,0.01,0.0,1,Lying,4
2019-01-20,16:24:29,1.18,2.56,8.299999,0.0,0.01,0.0,0.0,0.01,0.0,1,Lying,4
2019-01-20,16:24:29,1.18,2.56,8.299999,0.04,-0.049999997000000004,-0.02,0.04,-0.049999997000000004,-0.02,1,Lying,4
2019-01-20,16:24:29,1.6099999,2.44,8.57,0.04,-0.049999997000000004,-0.02,0.04,-0.049999997000000004,-0.02,1,Lying,4
2019-01-20,16:24:29,1.6099999,2.44,8.57,0.0,-0.13,0.0,0.0,-0.13,0.0,1,Lying,4
2019-01-20,16:24:29,1.8,2.4099998,8.719999000000001,0.0,-0.13,0.0,0.0,-0.13,0.0,1,Lying,4
2019-01-20,16:24:29,1.8,2.4099998,8.719999000000001,-0.03,-0.089999996,0.0,-0.03,-0.089999996,0.0,1,Lying,4
2019-01-20,16:24:29,1.6899998999999999,2.46,8.4,-0.03,-0.089999996,0.0,-0.03,-0.089999996,0.0,1,Lying,4
2019-01-20,16:24:29,1.6899998999999999,2.46,8.4,0.0,-0.04,0.0,0.0,-0.04,0.0,1,Lying,4
2019-01-20,16:24:29,1.66,2.47,8.48,0.0,-0.04,0.0,0.0,-0.04,0.0,1,Lying,4
2019-01-20,16:24:29,1.66,2.47,8.48,0.0,-0.03,0.0,0.0,-0.03,0.0,1,Lying,4
2019-01-20,16:24:29,1.6099999,2.3999999,8.519999499999999,0.0,-0.03,0.0,0.0,-0.03,0.0,1,Lying,4
2019-01-20,16:24:29,1.6099999,2.3999999,8.519999499999999,-0.01,0.0,0.0,-0.01,0.0,0.0,1,Lying,4
2019-01-20,16:24:29,1.6099999,2.3999999,8.48,-0.01,0.0,0.0,-0.01,0.0,0.0,1,Lying,4
2019-01-20,16:24:29,1.6099999,2.3999999,8.48,0.0,0.0,0.0,0.0,0.0,0.0,1,Lying,4
2019-01-20,16:24:29,1.77,2.46,8.519999499999999,0.0,0.0,0.0,0.0,0.0,0.0,1,Lying,4
2019-01-20,16:24:29,1.77,2.46,8.519999499999999,0.0,-0.02,0.0,0.0,-0.02,0.0,1,Lying,4
2019-01-20,16:24:29,1.65,2.44,8.45,0.0,-0.02,0.0,0.0,-0.02,0.0,1,Lying,4
2019-01-20,16:24:29,1.65,2.44,8.45,0.0,0.0,0.0,0.0,0.0,0.0,1,Lying,4
2019-01-20,16:24:29,1.6099999,2.47,8.42,0.0,0.0,0.0,0.0,0.0,0.0,1,Lying,4
2019-01-20,16:24:29,1.6099999,2.47,8.42,0.0,0.0,0.0,0.0,0.0,0.0,1,Lying,4
2019-01-20,16:24:29,1.5799999,2.4099998,8.4,0.0,0.0,0.0,0.0,0.0,0.0,1,Lying,4
2019-01-20,16:24:29,1.5799999,2.4099998,8.4,0.0,0.0,0.0,0.0,0.0,0.0,1,Lying,4
2019-01-20,16:24:29,1.54,2.35,8.65,0.0,0.0,0.0,0.0,0.0,0.0,1,Lying,4
2019-01-20,16:24:29,1.54,2.35,8.65,-0.01,0.02,0.0,-0.01,0.02,0.0,1,Lying,4
2019-01-20,16:24:29,0.97999996,2.53,8.129999,-0.01,0.02,0.0,-0.01,0.02,0.0,1,Lying,4
2019-01-20,16:24:29,0.97999996,2.53,8.129999,0.03,0.03,-0.01,0.03,0.03,-0.01,1,Lying,4
2019-01-20,16:24:29,1.6999999,2.56,8.62,0.03,0.03,-0.01,0.03,0.03,-0.01,1,Lying,4
2019-01-20,16:24:29,1.6999999,2.56,8.62,0.01,-0.17999999,0.07,0.01,-0.17999999,0.07,1,Lying,4
2019-01-20,16:24:29,2.51,2.1299999,9.099999,-0.02,-0.19,0.09999999400000001,-0.02,-0.19,0.09999999400000001,1,Lying,4
2019-01-20,16:24:29,2.51,2.1299999,9.099999,-0.02,-0.19,0.09999999400000001,-0.02,-0.19,0.09999999400000001,1,Lying,4
2019-01-20,16:24:29,1.89,2.52,8.179999,-0.02,-0.19,0.09999999400000001,-0.02,-0.19,0.09999999400000001,1,Lying,4
2019-01-20,16:24:29,1.89,2.52,8.179999,0.089999996,0.13,0.0,0.089999996,0.13,0.0,1,Lying,4
2019-01-20,16:24:29,1.8199999,2.6799998,8.03,0.089999996,0.13,0.0,0.089999996,0.13,0.0,1,Lying,4
2019-01-20,16:24:29,1.8199999,2.6799998,8.03,0.07,0.06,0.0,0.07,0.06,0.0,1,Lying,4
2019-01-20,16:24:29,1.93,2.3799999,8.509999,0.07,0.06,0.0,0.07,0.06,0.0,1,Lying,4
2019-01-20,16:24:29,1.93,2.3799999,8.509999,-0.01,0.0,-0.01,-0.01,0.0,-0.01,1,Lying,4
2019-01-20,16:24:29,1.76,2.4199998,8.719999000000001,-0.01,0.0,-0.01,-0.01,0.0,-0.01,1,Lying,4
2019-01-20,16:24:29,1.76,2.4199998,8.719999000000001,0.0,0.02,-0.03,0.0,0.02,-0.03,1,Lying,4
2019-01-20,16:24:29,1.28,2.46,8.4,0.0,0.02,-0.03,0.0,0.02,-0.03,1,Lying,4
2019-01-20,16:24:29,1.28,2.46,8.4,0.03,0.06,-0.07,0.03,0.06,-0.07,1,Lying,4
2019-01-20,16:24:30,1.41,2.6399999,8.12,0.03,0.06,-0.07,0.03,0.06,-0.07,1,Lying,4
2019-01-20,16:24:30,1.41,2.6399999,8.12,0.0,-0.07,-0.03,0.0,-0.07,-0.03,1,Lying,4
2019-01-20,16:24:30,1.81,2.52,8.46,0.0,-0.07,-0.03,0.0,-0.07,-0.03,1,Lying,4
2019-01-20,16:24:30,1.81,2.52,8.46,-0.049999997000000004,-0.09999999400000001,0.0,-0.049999997000000004,-0.09999999400000001,0.0,1,Lying,4
2019-01-20,16:24:30,1.76,2.46,8.769999499999999,-0.049999997000000004,-0.09999999400000001,0.0,-0.049999997000000004,-0.09999999400000001,0.0,1,Lying,4
2019-01-20,16:24:30,1.76,2.46,8.769999499999999,-0.049999997000000004,0.0,0.0,-0.049999997000000004,0.0,0.0,1,Lying,4
2019-01-20,16:24:30,1.6299999,2.58,8.45,-0.049999997000000004,0.0,0.0,-0.049999997000000004,0.0,0.0,1,Lying,4
2019-01-20,16:24:30,1.6299999,2.58,8.45,-0.01,0.01,0.0,-0.01,0.01,0.0,1,Lying,4
2019-01-20,16:24:30,1.8399999,2.3899999,8.4,-0.01,0.01,0.0,-0.01,0.01,0.0,1,Lying,4
2019-01-20,16:24:30,1.8399999,2.3899999,8.4,-0.01,0.0,0.02,-0.01,0.0,0.02,1,Lying,4
2019-01-20,16:24:30,1.6099999,2.43,8.429999,-0.01,0.0,0.02,-0.01,0.0,0.02,1,Lying,4
2019-01-20,16:24:30,1.6099999,2.43,8.429999,-0.01,0.04,0.0,-0.01,0.04,0.0,1,Lying,4
2019-01-20,16:24:30,1.5699999,2.33,8.54,-0.01,0.04,0.0,-0.01,0.04,0.0,1,Lying,4
2019-01-20,16:24:30,1.5699999,2.33,8.54,-0.02,-0.01,0.0,-0.02,-0.01,0.0,1,Lying,4
2019-01-20,16:24:30,2.06,2.36,7.6899996,-0.02,-0.01,0.0,-0.02,-0.01,0.0,1,Lying,4
2019-01-20,16:24:30,2.06,2.36,7.6899996,-0.02,-0.07,0.01,-0.02,-0.07,0.01,1,Lying,4
2019-01-20,16:24:30,1.6999999,2.36,8.29,-0.02,-0.07,0.01,-0.02,-0.07,0.01,1,Lying,4
2019-01-20,16:24:30,1.6999999,2.36,8.29,0.0,0.04,0.0,0.0,0.04,0.0,1,Lying,4
2019-01-20,16:24:30,1.8199999,2.44,8.599999,0.0,0.04,0.0,0.0,0.04,0.0,1,Lying,4
2019-01-20,16:24:30,1.8199999,2.44,8.599999,-0.01,0.04,0.01,-0.01,0.04,0.01,1,Lying,4
2019-01-20,16:24:30,1.5899999,2.4199998,8.379999,-0.01,0.04,0.01,-0.01,0.04,0.01,1,Lying,4
2019-01-20,16:24:30,1.5899999,2.4199998,8.379999,0.0,0.04,-0.01,0.0,0.04,-0.01,1,Lying,4
2019-01-20,16:24:30,1.67,2.48,8.37,0.0,0.04,-0.01,0.0,0.04,-0.01,1,Lying,4
2019-01-20,16:24:30,1.67,2.48,8.37,-0.01,-0.01,0.0,-0.01,-0.01,0.0,1,Lying,4
2019-01-20,16:24:30,1.77,2.37,8.53,-0.03,-0.01,0.01,-0.03,-0.01,0.01,1,Lying,4
2019-01-20,16:24:30,1.77,2.37,8.53,-0.03,-0.01,0.01,-0.03,-0.01,0.01,1,Lying,4
2019-01-20,16:24:30,1.6899998999999999,2.37,8.53,-0.03,-0.01,0.01,-0.03,-0.01,0.01,1,Lying,4
2019-01-20,16:24:30,1.6899998999999999,2.37,8.53,-0.01,-0.01,0.0,-0.01,-0.01,0.0,1,Lying,4
2019-01-20,16:24:30,1.7299999,2.35,8.62,-0.01,-0.01,0.0,-0.01,-0.01,0.0,1,Lying,4
2019-01-20,16:24:30,1.7299999,2.35,8.62,-0.02,0.0,0.02,-0.02,0.0,0.02,1,Lying,4
2019-01-20,16:24:30,1.8199999,2.3799999,8.5,-0.02,0.0,0.02,-0.02,0.0,0.02,1,Lying,4
2019-01-20,16:24:30,1.8199999,2.3799999,8.5,0.0,0.0,0.01,0.0,0.0,0.01,1,Lying,4
2019-01-20,16:24:30,1.7099999,2.37,8.5,0.0,0.0,0.01,0.0,0.0,0.01,1,Lying,4
2019-01-20,16:24:30,1.7099999,2.37,8.5,0.0,0.0,0.0,0.0,0.0,0.0,1,Lying,4
2019-01-20,16:24:30,1.7299999,2.43,8.53,-0.01,0.02,0.01,-0.01,0.02,0.01,1,Lying,4
2019-01-20,16:24:30,1.7299999,2.43,8.53,-0.01,0.02,0.01,-0.01,0.02,0.01,1,Lying,4
2019-01-20,16:24:30,1.9399998999999999,2.35,8.74,-0.01,0.02,0.01,-0.01,0.02,0.01,1,Lying,4
2019-01-20,16:24:30,1.9399998999999999,2.35,8.74,-0.01,-0.03,0.01,-0.01,-0.03,0.01,1,Lying,4
2019-01-20,16:24:30,1.91,2.32,8.7,-0.01,-0.03,0.01,-0.01,-0.03,0.01,1,Lying,4
2019-01-20,16:24:30,1.91,2.32,8.7,0.0,0.02,0.01,0.0,0.02,0.01,1,Lying,4
2019-01-20,16:24:30,1.56,2.43,8.36,0.0,0.02,0.01,0.0,0.02,0.01,1,Lying,4
2019-01-20,16:24:30,1.56,2.43,8.36,0.04,0.07,0.0,0.04,0.07,0.0,1,Lying,4
2019-01-20,16:24:30,1.8699999,2.4199998,8.509999,0.04,0.07,0.0,0.04,0.07,0.0,1,Lying,4
2019-01-20,16:24:30,1.8699999,2.4199998,8.509999,0.01,0.01,0.02,0.01,0.01,0.02,1,Lying,4
2019-01-20,16:24:30,1.6999999,2.3,8.629999,0.01,0.01,0.02,0.01,0.01,0.02,1,Lying,4
2019-01-20,16:24:31,1.6999999,2.3,8.629999,0.0,0.04,0.0,0.0,0.04,0.0,1,Lying,4
2019-01-20,16:24:31,1.43,2.37,8.54,0.0,0.04,0.0,0.0,0.04,0.0,1,Lying,4
2019-01-20,16:24:31,1.43,2.37,8.54,0.03,0.049999997000000004,0.0,0.03,0.049999997000000004,0.0,1,Lying,4
2019-01-20,16:24:31,1.7499999,2.4099998,8.549999,0.03,0.049999997000000004,0.0,0.03,0.049999997000000004,0.0,1,Lying,4
2019-01-20,16:24:31,1.7499999,2.4099998,8.549999,0.01,0.03,0.02,0.01,0.03,0.02,1,Lying,4
2019-01-20,16:24:31,1.9,2.53,8.389999000000001,0.01,0.03,0.02,0.01,0.03,0.02,1,Lying,4
2019-01-20,16:24:31,1.9,2.53,8.389999000000001,0.01,0.0,0.02,0.01,0.0,0.02,1,Lying,4
2019-01-20,16:24:31,1.7499999,2.4199998,8.509999,0.01,0.0,0.02,0.01,0.0,0.02,1,Lying,4
2019-01-20,16:24:31,1.7499999,2.4199998,8.509999,0.02,0.04,0.0,0.02,0.04,0.0,1,Lying,4
2019-01-20,16:24:31,1.4499999,2.5,8.45,0.02,0.04,0.0,0.02,0.04,0.0,1,Lying,4
2019-01-20,16:24:31,1.4499999,2.5,8.45,0.02,0.0,0.0,0.02,0.0,0.0,1,Lying,4
2019-01-20,16:24:31,1.77,2.45,8.58,0.02,0.0,0.0,0.02,0.0,0.0,1,Lying,4
2019-01-20,16:24:31,1.77,2.45,8.58,0.01,-0.06,0.0,0.01,-0.06,0.0,1,Lying,4
2019-01-20,16:24:31,1.7199999,2.53,8.4,0.01,-0.06,0.0,0.01,-0.06,0.0,1,Lying,4
2019-01-20,16:24:31,1.7199999,2.53,8.4,0.03,-0.06,-0.01,0.03,-0.06,-0.01,1,Lying,4
2019-01-20,16:24:31,1.78,2.37,8.589999,0.03,-0.06,-0.01,0.03,-0.06,-0.01,1,Lying,4
2019-01-20,16:24:31,1.78,2.37,8.589999,0.03,-0.06,-0.01,0.03,-0.06,-0.01,1,Lying,4
2019-01-20,16:24:31,1.55,2.54,8.309999000000001,0.03,-0.06,-0.01,0.03,-0.06,-0.01,1,Lying,4
2019-01-20,16:24:31,1.55,2.54,8.309999000000001,0.08,-0.04,-0.02,0.08,-0.04,-0.02,1,Lying,4
2019-01-20,16:24:31,1.8299999,2.72,8.009999,0.08,-0.04,-0.02,0.08,-0.04,-0.02,1,Lying,4
2019-01-20,16:24:31,1.8299999,2.72,8.009999,0.049999997000000004,-0.17999999,0.0,0.049999997000000004,-0.17999999,0.0,1,Lying,4
2019-01-20,16:24:31,2.32,2.61,8.349999,0.049999997000000004,-0.17999999,0.0,0.049999997000000004,-0.17999999,0.0,1,Lying,4
2019-01-20,16:24:31,2.32,2.61,8.349999,-0.02,-0.14999999,0.02,-0.02,-0.14999999,0.02,1,Lying,4
2019-01-20,16:24:31,1.9,2.51,8.46,-0.02,-0.14999999,0.02,-0.02,-0.14999999,0.02,1,Lying,4
2019-01-20,16:24:31,1.9,2.51,8.46,-0.049999997000000004,0.04,0.01,-0.049999997000000004,0.04,0.01,1,Lying,4
2019-01-20,16:24:31,1.4899999,2.75,8.2,-0.049999997000000004,0.04,0.01,-0.049999997000000004,0.04,0.01,1,Lying,4
2019-01-20,16:24:31,1.4899999,2.75,8.2,-0.01,0.089999996,0.01,-0.01,0.089999996,0.01,1,Lying,4
2019-01-20,16:24:31,2.09,2.57,8.349999,-0.01,0.089999996,0.01,-0.01,0.089999996,0.01,1,Lying,4
2019-01-20,16:24:31,2.09,2.57,8.349999,0.0,-0.06,0.07,0.0,-0.06,0.07,1,Lying,4
2019-01-20,16:24:31,2.3,2.51,8.259999,0.0,-0.06,0.07,0.0,-0.06,0.07,1,Lying,4
2019-01-20,16:24:31,2.3,2.51,8.259999,-0.04,-0.01,0.07,-0.04,-0.01,0.07,1,Lying,4
2019-01-20,16:24:31,2.36,2.47,8.509999,-0.04,-0.01,0.07,-0.04,-0.01,0.07,1,Lying,4
2019-01-20,16:24:31,2.36,2.47,8.509999,-0.04,0.06,0.01,-0.04,0.06,0.01,1,Lying,4
2019-01-20,16:24:31,1.7299999,2.4099998,8.5,-0.04,0.06,0.01,-0.04,0.06,0.01,1,Lying,4
2019-01-20,16:24:31,1.7299999,2.4099998,8.5,0.02,-0.01,-0.08,0.02,-0.01,-0.08,1,Lying,4
2019-01-20,16:24:31,1.42,2.58,8.25,0.02,-0.01,-0.08,0.02,-0.01,-0.08,1,Lying,4
2019-01-20,16:24:31,1.42,2.58,8.25,0.04,0.01,-0.02,0.04,0.01,-0.02,1,Lying,4
2019-01-20,16:24:31,2.04,2.46,8.48,0.04,0.01,-0.02,0.04,0.01,-0.02,1,Lying,4
2019-01-20,16:24:31,2.04,2.46,8.48,-0.04,-0.08,0.02,-0.04,-0.08,0.02,1,Lying,4
2019-01-20,16:24:31,2.3799999,2.44,8.66,-0.04,-0.08,0.02,-0.04,-0.08,0.02,1,Lying,4
2019-01-20,16:24:31,2.3799999,2.44,8.66,-0.04,-0.04,0.01,-0.04,-0.04,0.01,1,Lying,4
2019-01-20,16:24:31,1.4599999,2.48,8.28,-0.04,-0.04,0.01,-0.04,-0.04,0.01,1,Lying,4
2019-01-20,16:24:31,1.4599999,2.48,8.28,0.03,0.09999999400000001,-0.03,0.03,0.09999999400000001,-0.03,1,Lying,4
2019-01-20,16:24:32,1.54,2.59,8.15,0.03,0.09999999400000001,-0.03,0.03,0.09999999400000001,-0.03,1,Lying,4
2019-01-20,16:24:32,1.54,2.59,8.15,0.049999997000000004,0.0,-0.04,0.049999997000000004,0.0,-0.04,1,Lying,4
2019-01-20,16:24:32,2.25,2.6,8.4,0.049999997000000004,0.0,-0.04,0.049999997000000004,0.0,-0.04,1,Lying,4
2019-01-20,16:24:32,2.25,2.6,8.4,-0.04,-0.04,0.04,-0.04,-0.04,0.04,1,Lying,4
2019-01-20,16:24:32,1.7499999,2.3799999,8.549999,-0.04,-0.04,0.04,-0.04,-0.04,0.04,1,Lying,4
2019-01-20,16:24:32,1.7499999,2.3799999,8.549999,-0.01,0.11,0.0,-0.01,0.11,0.0,1,Lying,4
2019-01-20,16:24:32,1.5799999,2.37,8.339999,-0.01,0.11,0.0,-0.01,0.11,0.0,1,Lying,4
2019-01-20,16:24:32,1.5799999,2.37,8.339999,0.0,0.09999999400000001,0.0,0.0,0.09999999400000001,0.0,1,Lying,4
2019-01-20,16:24:32,1.7099999,2.47,8.4,0.0,0.09999999400000001,0.0,0.0,0.09999999400000001,0.0,1,Lying,4
2019-01-20,16:24:32,1.7099999,2.47,8.4,0.0,0.0,0.01,0.0,0.0,0.01,1,Lying,4
2019-01-20,16:24:32,1.91,2.43,8.429999,0.0,0.0,0.01,0.0,0.0,0.01,1,Lying,4
2019-01-20,16:24:32,1.91,2.43,8.429999,-0.03,-0.01,0.03,-0.03,-0.01,0.03,1,Lying,4
2019-01-20,16:24:32,1.9499999,2.48,8.42,-0.03,-0.01,0.03,-0.03,-0.01,0.03,1,Lying,4
2019-01-20,16:24:32,1.9499999,2.48,8.42,-0.02,0.02,0.02,-0.02,0.02,0.02,1,Lying,4
2019-01-20,16:24:32,2.02,2.36,8.75,-0.02,0.02,0.02,-0.02,0.02,0.02,1,Lying,4
2019-01-20,16:24:32,2.02,2.36,8.75,-0.04,0.12,0.02,-0.04,0.12,0.02,1,Lying,4
2019-01-20,16:24:32,2.07,2.37,8.879999,-0.04,0.12,0.02,-0.04,0.12,0.02,1,Lying,4
2019-01-20,16:24:32,2.07,2.37,8.879999,-0.04,0.26,0.03,-0.04,0.26,0.03,1,Lying,4
2019-01-20,16:24:32,1.5799999,2.26,8.57,-0.04,0.26,0.03,-0.04,0.26,0.03,1,Lying,4
2019-01-20,16:24:32,1.5799999,2.26,8.57,-0.01,0.38,0.0,-0.01,0.38,0.0,1,Lying,4
2019-01-20,16:24:32,1.27,2.3799999,8.429999,-0.01,0.38,0.0,-0.01,0.38,0.0,1,Lying,4
2019-01-20,16:24:32,1.27,2.3799999,8.429999,0.02,0.32999998,-0.01,0.02,0.32999998,-0.01,1,Lying,4
2019-01-20,16:24:32,1.4999999,2.4199998,8.559999000000001,0.02,0.32999998,-0.01,0.02,0.32999998,-0.01,1,Lying,4
2019-01-20,16:24:32,1.4999999,2.4199998,8.559999000000001,0.01,0.13,-0.01,0.01,0.13,-0.01,1,Lying,4
2019-01-20,16:24:32,1.0899999,2.44,8.469999000000001,0.0,0.11,-0.02,0.0,0.11,-0.02,1,Lying,4
2019-01-20,16:24:32,1.0899999,2.44,8.469999000000001,0.0,0.11,-0.02,0.0,0.11,-0.02,1,Lying,4
2019-01-20,16:24:32,1.1899998999999999,2.36,8.509999,0.0,0.11,-0.02,0.0,0.11,-0.02,1,Lying,4
2019-01-20,16:24:32,1.1899998999999999,2.36,8.509999,0.03,0.0,0.0,0.03,0.0,0.0,1,Lying,4
2019-01-20,16:24:32,1.4499999,2.52,8.309999000000001,0.03,0.0,0.0,0.03,0.0,0.0,1,Lying,4
2019-01-20,16:24:32,1.4499999,2.52,8.309999000000001,0.04,-0.06,0.01,0.04,-0.06,0.01,1,Lying,4
2019-01-20,16:24:32,1.4499999,2.6299999,8.17,0.04,-0.06,0.01,0.04,-0.06,0.01,1,Lying,4
2019-01-20,16:24:32,1.4499999,2.6299999,8.17,0.049999997000000004,-0.12,0.0,0.049999997000000004,-0.12,0.0,1,Lying,4
2019-01-20,16:24:32,1.6199999,2.3999999,8.58,0.049999997000000004,-0.12,0.0,0.049999997000000004,-0.12,0.0,1,Lying,4
2019-01-20,16:24:32,1.6199999,2.3999999,8.58,-0.01,-0.12,0.0,-0.01,-0.12,0.0,1,Lying,4
2019-01-20,16:24:32,1.39,2.3799999,8.74,-0.01,-0.12,0.0,-0.01,-0.12,0.0,1,Lying,4
2019-01-20,16:24:32,1.39,2.3799999,8.74,-0.02,-0.02,0.0,-0.02,-0.02,0.0,1,Lying,4
2019-01-20,16:24:32,1.1899998999999999,2.37,8.66,-0.02,-0.02,0.0,-0.02,-0.02,0.0,1,Lying,4
2019-01-20,16:24:32,1.1899998999999999,2.37,8.66,0.0,0.0,0.0,0.0,0.0,0.0,1,Lying,4
2019-01-20,16:24:32,1.55,2.54,8.48,0.0,0.0,0.0,0.0,0.0,0.0,1,Lying,4
2019-01-20,16:24:32,1.55,2.54,8.48,0.01,-0.08,0.01,0.01,-0.08,0.01,1,Lying,4
2019-01-20,16:24:32,1.76,2.3999999,8.41,0.01,-0.08,0.01,0.01,-0.08,0.01,1,Lying,4
2019-01-20,16:24:32,1.76,2.3999999,8.41,0.0,-0.12,0.01,0.0,-0.12,0.01,1,Lying,4
2019-01-20,16:24:32,1.6999999,2.49,8.32,0.0,-0.12,0.01,0.0,-0.12,0.01,1,Lying,4
2019-01-20,16:24:32,1.6999999,2.49,8.32,0.01,-0.09999999400000001,0.0,0.01,-0.09999999400000001,0.0,1,Lying,4
2019-01-20,16:24:32,1.7399999,2.4099998,8.53,0.01,-0.09999999400000001,0.0,0.01,-0.09999999400000001,0.0,1,Lying,4
2019-01-20,16:24:32,1.7399999,2.4099998,8.53,-0.02,-0.13,0.0,-0.02,-0.13,0.0,1,Lying,4
2019-01-20,16:24:33,1.7299999,2.3999999,8.66,-0.02,-0.13,0.0,-0.02,-0.13,0.0,1,Lying,4
2019-01-20,16:24:33,1.7299999,2.3999999,8.66,-0.02,-0.11,0.0,-0.02,-0.11,0.0,1,Lying,4
2019-01-20,16:24:33,1.6999999,2.48,8.48,-0.02,-0.11,0.0,-0.02,-0.11,0.0,1,Lying,4
2019-01-20,16:24:33,1.6999999,2.48,8.48,0.01,-0.089999996,0.0,0.01,-0.089999996,0.0,1,Lying,4
2019-01-20,16:24:33,1.8699999,2.54,8.42,0.01,-0.089999996,0.0,0.01,-0.089999996,0.0,1,Lying,4
2019-01-20,16:24:33,1.8699999,2.54,8.42,0.01,-0.12,0.01,0.01,-0.12,0.01,1,Lying,4
2019-01-20,16:24:33,1.79,2.55,8.2,0.01,-0.12,0.01,0.01,-0.12,0.01,1,Lying,4
2019-01-20,16:24:33,1.79,2.55,8.2,0.02,-0.06,0.0,0.02,-0.06,0.0,1,Lying,4
2019-01-20,16:24:33,1.92,2.53,8.509999,0.02,-0.06,0.0,0.02,-0.06,0.0,1,Lying,4
2019-01-20,16:24:33,1.92,2.53,8.509999,0.0,-0.089999996,0.0,0.0,-0.089999996,0.0,1,Lying,4
2019-01-20,16:24:33,1.8,2.36,8.54,0.0,-0.089999996,0.0,0.0,-0.089999996,0.0,1,Lying,4
2019-01-20,16:24:33,1.8,2.36,8.54,0.0,-0.01,0.02,0.0,-0.01,0.02,1,Lying,4
2019-01-20,16:24:33,2.4599998,1.8499999,9.08,0.0,-0.07,0.02,0.0,-0.07,0.02,1,Lying,4
2019-01-20,16:24:33,2.4599998,1.8499999,9.08,0.0,-0.07,0.02,0.0,-0.07,0.02,1,Lying,4
2019-01-20,16:24:33,1.8,2.74,8.53,0.0,-0.07,0.02,0.0,-0.07,0.02,1,Lying,4
2019-01-20,16:24:33,1.8,2.74,8.53,0.0,0.09999999400000001,-0.02,0.0,0.09999999400000001,-0.02,1,Lying,4
2019-01-20,16:24:33,1.41,2.3899999,8.49,0.0,0.09999999400000001,-0.02,0.0,0.09999999400000001,-0.02,1,Lying,4
2019-01-20,16:24:33,1.41,2.3899999,8.49,0.01,0.09999999400000001,0.0,0.01,0.09999999400000001,0.0,1,Lying,4
2019-01-20,16:24:33,2.21,2.35,8.339999,0.01,0.09999999400000001,0.0,0.01,0.09999999400000001,0.0,1,Lying,4
2019-01-20,16:24:33,2.21,2.35,8.339999,-0.01,-0.049999997000000004,0.01,-0.01,-0.049999997000000004,0.01,1,Lying,4
2019-01-20,16:24:33,2.22,2.57,8.429999,-0.01,-0.049999997000000004,0.01,-0.01,-0.049999997000000004,0.01,1,Lying,4
2019-01-20,16:24:33,2.22,2.57,8.429999,-0.03,0.14999999,0.0,-0.03,0.14999999,0.0,1,Lying,4
2019-01-20,16:24:33,2.01,2.34,8.71,-0.03,0.14999999,0.0,-0.03,0.14999999,0.0,1,Lying,4
2019-01-20,16:24:33,2.01,2.34,8.71,-0.049999997000000004,0.25,-0.04,-0.049999997000000004,0.25,-0.04,1,Lying,4
2019-01-20,16:24:33,1.81,2.46,8.509999,-0.049999997000000004,0.25,-0.04,-0.049999997000000004,0.25,-0.04,1,Lying,4
2019-01-20,16:24:33,1.81,2.46,8.509999,0.0,0.21,-0.07,0.0,0.21,-0.07,1,Lying,4
2019-01-20,16:24:33,1.43,2.45,8.299999,0.0,0.21,-0.07,0.0,0.21,-0.07,1,Lying,4
2019-01-20,16:24:33,1.43,2.45,8.299999,0.01,0.25,-0.07,0.01,0.25,-0.07,1,Lying,4
2019-01-20,16:24:33,0.98999995,2.18,8.66,0.01,0.25,-0.07,0.01,0.25,-0.07,1,Lying,4
2019-01-20,16:24:33,0.98999995,2.18,8.66,0.0,0.29,-0.02,0.0,0.29,-0.02,1,Lying,4
2019-01-20,16:24:33,1.4499999,2.3899999,8.599999,0.0,0.21,0.03,0.0,0.21,0.03,1,Lying,4
2019-01-20,16:24:33,1.4499999,2.3899999,8.599999,0.0,0.21,0.03,0.0,0.21,0.03,1,Lying,4
2019-01-20,16:24:33,2.1499999,2.36,8.75,0.0,0.21,0.03,0.0,0.21,0.03,1,Lying,4
2019-01-20,16:24:33,2.1499999,2.36,8.75,0.0,-0.07,0.01,0.0,-0.07,0.01,1,Lying,4
2019-01-20,16:24:33,1.43,2.3999999,8.36,0.0,-0.07,0.01,0.0,-0.07,0.01,1,Lying,4
2019-01-20,16:24:33,1.43,2.3999999,8.36,0.049999997000000004,0.06,-0.049999997000000004,0.049999997000000004,0.06,-0.049999997000000004,1,Lying,4
2019-01-20,16:24:33,0.65999997,2.59,8.139999000000001,0.049999997000000004,0.06,-0.049999997000000004,0.049999997000000004,0.06,-0.049999997000000004,1,Lying,4
2019-01-20,16:24:33,0.65999997,2.59,8.139999000000001,0.03,0.19999999,-0.02,0.03,0.19999999,-0.02,1,Lying,4
2019-01-20,16:24:33,1.4,2.54,8.469999000000001,0.03,0.19999999,-0.02,0.03,0.19999999,-0.02,1,Lying,4
2019-01-20,16:24:33,1.4,2.54,8.469999000000001,-0.089999996,-0.17999999,0.0,-0.089999996,-0.17999999,0.0,1,Lying,4
2019-01-20,16:24:33,1.38,2.5,8.61,-0.089999996,-0.17999999,0.0,-0.089999996,-0.17999999,0.0,1,Lying,4
2019-01-20,16:24:33,1.38,2.5,8.61,0.0,-0.01,0.0,0.0,-0.01,0.0,1,Lying,4
2019-01-20,16:24:33,1.01,2.58,8.62,0.0,-0.01,0.0,0.0,-0.01,0.0,1,Lying,4
2019-01-20,16:24:33,1.01,2.58,8.62,0.01,-0.06,-0.03,0.01,-0.06,-0.03,1,Lying,4
2019-01-20,16:24:33,1.4,2.33,8.57,0.01,-0.06,-0.03,0.01,-0.06,-0.03,1,Lying,4
2019-01-20,16:24:34,1.4,2.33,8.57,0.01,-0.14,0.02,0.01,-0.14,0.02,1,Lying,4
2019-01-20,16:24:34,1.6199999,2.3,8.57,0.01,-0.14,0.02,0.01,-0.14,0.02,1,Lying,4
2019-01-20,16:24:34,1.6199999,2.3,8.57,0.06,-0.19999999,0.03,0.06,-0.19999999,0.03,1,Lying,4
2019-01-20,16:24:34,2.08,2.34,8.54,0.06,-0.19999999,0.03,0.06,-0.19999999,0.03,1,Lying,4
2019-01-20,16:24:34,2.08,2.34,8.54,0.03,-0.25,0.04,0.03,-0.25,0.04,1,Lying,4
2019-01-20,16:24:34,2.1399999,2.27,8.41,0.03,-0.25,0.04,0.03,-0.25,0.04,1,Lying,4
2019-01-20,16:24:34,2.1399999,2.27,8.41,0.02,-0.14999999,0.02,0.02,-0.14999999,0.02,1,Lying,4
2019-01-20,16:24:34,1.79,2.56,8.48,0.01,-0.03,0.01,0.01,-0.03,0.01,1,Lying,4
2019-01-20,16:24:34,1.79,2.56,8.48,0.01,-0.03,0.01,0.01,-0.03,0.01,1,Lying,4
2019-01-20,16:24:34,1.89,2.52,8.48,0.01,-0.03,0.01,0.01,-0.03,0.01,1,Lying,4
2019-01-20,16:24:34,1.89,2.52,8.48,-0.02,-0.06,0.0,-0.02,-0.06,0.0,1,Lying,4
2019-01-20,16:24:34,1.79,2.48,8.44,-0.02,-0.06,0.0,-0.02,-0.06,0.0,1,Lying,4
2019-01-20,16:24:34,1.79,2.48,8.44,-0.01,-0.03,0.0,-0.01,-0.03,0.0,1,Lying,4
2019-01-20,16:24:34,1.68,2.52,8.45,-0.01,-0.03,0.0,-0.01,-0.03,0.0,1,Lying,4
2019-01-20,16:24:34,1.68,2.52,8.45,-0.01,-0.03,0.0,-0.01,-0.03,0.0,1,Lying,4
2019-01-20,16:24:34,1.81,2.61,8.309999000000001,-0.01,-0.03,0.0,-0.01,-0.03,0.0,1,Lying,4
2019-01-20,16:24:34,1.81,2.61,8.309999000000001,0.0,-0.06,0.0,0.0,-0.06,0.0,1,Lying,4
2019-01-20,16:24:34,2.03,2.52,8.45,0.0,-0.06,0.0,0.0,-0.06,0.0,1,Lying,4
2019-01-20,16:24:34,2.03,2.52,8.45,-0.02,-0.04,0.02,-0.02,-0.04,0.02,1,Lying,4
2019-01-20,16:24:34,1.8,2.43,8.509999,-0.02,-0.04,0.02,-0.02,-0.04,0.02,1,Lying,4
2019-01-20,16:24:34,1.8,2.43,8.509999,-0.01,0.03,0.02,-0.01,0.03,0.02,1,Lying,4
2019-01-20,16:24:34,2.07,2.31,8.62,-0.01,0.03,0.02,-0.01,0.03,0.02,1,Lying,4
2019-01-20,16:24:34,2.07,2.31,8.62,-0.02,-0.03,0.02,-0.02,-0.03,0.02,1,Lying,4
2019-01-20,16:24:34,2.1799998,2.36,8.57,-0.02,-0.03,0.02,-0.02,-0.03,0.02,1,Lying,4
2019-01-20,16:24:34,2.1799998,2.36,8.57,0.0,0.0,0.01,0.0,0.0,0.01,1,Lying,4
2019-01-20,16:24:34,1.9999999,2.44,8.389999000000001,0.0,0.0,0.01,0.0,0.0,0.01,1,Lying,4
2019-01-20,16:24:34,1.9999999,2.44,8.389999000000001,0.01,0.06,-0.01,0.01,0.06,-0.01,1,Lying,4
2019-01-20,16:24:34,1.9999999,2.44,8.389999000000001,0.01,0.06,-0.01,0.01,0.06,-0.01,1,Lying,4
2019-01-20,16:24:34,1.7199999,2.48,8.45,0.01,0.06,-0.01,0.01,0.06,-0.01,1,Lying,4
2019-01-20,16:24:34,1.7199999,2.48,8.45,0.0,0.04,-0.03,0.0,0.04,-0.03,1,Lying,4
2019-01-20,16:24:34,1.4499999,2.43,8.469999000000001,0.0,0.04,-0.03,0.0,0.04,-0.03,1,Lying,4
2019-01-20,16:24:34,1.4499999,2.43,8.469999000000001,0.0,0.08,-0.03,0.0,0.08,-0.03,1,Lying,4
2019-01-20,16:24:34,1.7299999,2.5,8.469999000000001,0.0,0.08,-0.03,0.0,0.08,-0.03,1,Lying,4
2019-01-20,16:24:34,1.7299999,2.5,8.469999000000001,0.0,0.03,0.0,0.0,0.03,0.0,1,Lying,4
2019-01-20,16:24:34,1.9599999,2.47,8.469999000000001,0.0,0.03,0.0,0.0,0.03,0.0,1,Lying,4
2019-01-20,16:24:34,1.9599999,2.47,8.469999000000001,0.0,0.0,0.01,0.0,0.0,0.01,1,Lying,4
2019-01-20,16:24:34,1.64,2.47,8.259999,0.0,0.0,0.01,0.0,0.0,0.01,1,Lying,4
2019-01-20,16:24:34,1.64,2.47,8.259999,0.04,0.06,0.0,0.04,0.06,0.0,1,Lying,4
2019-01-20,16:24:34,1.6099999,2.5,8.299999,0.04,0.06,0.0,0.04,0.06,0.0,1,Lying,4
2019-01-20,16:24:34,1.6099999,2.5,8.299999,0.02,0.0,0.0,0.02,0.0,0.0,1,Lying,4
2019-01-20,16:24:34,1.7499999,2.56,8.57,0.02,0.0,0.0,0.02,0.0,0.0,1,Lying,4
2019-01-20,16:24:34,1.7499999,2.56,8.57,0.0,-0.04,0.01,0.0,-0.04,0.01,1,Lying,4
2019-01-20,16:24:34,2.09,2.6,8.759999,0.0,-0.04,0.01,0.0,-0.04,0.01,1,Lying,4
2019-01-20,16:24:34,2.09,2.6,8.759999,0.0,0.03,0.0,0.0,0.03,0.0,1,Lying,4
2019-01-20,16:24:34,1.04,2.45,7.91,0.0,0.03,0.0,0.0,0.03,0.0,1,Lying,4
2019-01-20,16:24:34,1.04,2.45,7.91,0.0,0.21,-0.04,0.0,0.21,-0.04,1,Lying,4
2019-01-20,16:24:35,1.56,2.12,8.009999,0.0,0.21,-0.04,0.0,0.21,-0.04,1,Lying,4
2019-01-20,16:24:35,1.56,2.12,8.009999,-0.049999997000000004,-0.11,0.04,-0.049999997000000004,-0.11,0.04,1,Lying,4
2019-01-20,16:24:35,2.6699998,2.09,9.12,-0.049999997000000004,-0.11,0.04,-0.049999997000000004,-0.11,0.04,1,Lying,4
2019-01-20,16:24:35,2.6699998,2.09,9.12,-0.06,-0.29999998,0.07,-0.06,-0.29999998,0.07,1,Lying,4
2019-01-20,16:24:35,2.6,2.26,9.139999000000001,-0.06,-0.29999998,0.07,-0.06,-0.29999998,0.07,1,Lying,4
2019-01-20,16:24:35,2.6,2.26,9.139999000000001,0.0,-0.14,0.0,0.0,-0.14,0.0,1,Lying,4
2019-01-20,16:24:35,1.7399999,2.6399999,8.24,0.0,-0.14,0.0,0.0,-0.14,0.0,1,Lying,4
2019-01-20,16:24:35,1.7399999,2.6399999,8.24,0.06,0.06,-0.04,0.06,0.06,-0.04,1,Lying,4
2019-01-20,16:24:35,1.43,2.6499999,8.129999,0.06,0.06,-0.04,0.06,0.06,-0.04,1,Lying,4
2019-01-20,16:24:35,1.43,2.6499999,8.129999,0.01,0.07,-0.06,0.01,0.07,-0.06,1,Lying,4
2019-01-20,16:24:35,1.68,2.7,8.309999000000001,0.01,0.07,-0.06,0.01,0.07,-0.06,1,Lying,4
2019-01-20,16:24:35,1.68,2.7,8.309999000000001,-0.02,-0.04,-0.049999997000000004,-0.02,-0.04,-0.049999997000000004,1,Lying,4
2019-01-20,16:24:35,1.6899998999999999,2.59,8.45,-0.02,-0.04,-0.049999997000000004,-0.02,-0.04,-0.049999997000000004,1,Lying,4
2019-01-20,16:24:35,1.6899998999999999,2.59,8.45,-0.01,-0.04,-0.04,-0.01,-0.04,-0.04,1,Lying,4
2019-01-20,16:24:35,1.54,2.52,8.49,-0.01,-0.04,-0.04,-0.01,-0.04,-0.04,1,Lying,4
2019-01-20,16:24:35,1.54,2.52,8.49,0.0,0.01,-0.02,0.0,0.01,-0.02,1,Lying,4
2019-01-20,16:24:35,1.7399999,2.44,8.53,0.0,0.01,-0.02,0.0,0.01,-0.02,1,Lying,4
2019-01-20,16:24:35,1.7399999,2.44,8.53,0.01,-0.02,0.03,0.01,-0.02,0.03,1,Lying,4
2019-01-20,16:24:35,2.01,2.47,8.559999000000001,0.01,-0.02,0.03,0.01,-0.02,0.03,1,Lying,4
2019-01-20,16:24:35,2.01,2.47,8.559999000000001,0.0,-0.04,0.04,0.0,-0.04,0.04,1,Lying,4
2019-01-20,16:24:35,1.8199999,2.55,8.29,0.0,-0.04,0.04,0.0,-0.04,0.04,1,Lying,4
2019-01-20,16:24:35,1.8199999,2.55,8.29,0.04,0.0,0.02,0.04,0.0,0.02,1,Lying,4
2019-01-20,16:24:35,2.02,2.51,8.37,0.04,0.0,0.02,0.04,0.0,0.02,1,Lying,4
2019-01-20,16:24:35,2.02,2.51,8.37,0.0,0.0,0.03,0.0,0.0,0.03,1,Lying,4
2019-01-20,16:24:35,2.07,2.4099998,8.599999,0.0,0.01,0.01,0.0,0.01,0.01,1,Lying,4
2019-01-20,16:24:35,2.07,2.4099998,8.599999,0.0,0.01,0.01,0.0,0.01,0.01,1,Lying,4
2019-01-20,16:24:35,2.07,2.4099998,8.599999,0.0,0.03,0.0,0.0,0.03,0.0,1,Lying,4
2019-01-20,16:24:35,1.9999999,2.3899999,8.889999000000001,0.0,0.03,0.0,0.0,0.03,0.0,1,Lying,4
2019-01-20,16:24:35,1.9999999,2.3899999,8.889999000000001,0.02,0.049999997000000004,-0.02,0.02,0.049999997000000004,-0.02,1,Lying,4
2019-01-20,16:24:35,1.0899999,2.48,7.7799997,0.02,0.049999997000000004,-0.02,0.02,0.049999997000000004,-0.02,1,Lying,4
2019-01-20,16:24:35,1.0899999,2.48,7.7799997,0.16,0.09999999400000001,-0.06,0.16,0.09999999400000001,-0.06,1,Lying,4
2019-01-20,16:24:35,1.0799999,2.95,7.5499997,0.16,0.09999999400000001,-0.06,0.16,0.09999999400000001,-0.06,1,Lying,4
2019-01-20,16:24:35,1.0799999,2.95,7.5499997,0.06,-0.02,0.04,0.06,-0.02,0.04,1,Lying,4
2019-01-20,16:24:35,2.98,2.53,8.799999,-0.12,-0.21,0.16,-0.12,-0.21,0.16,1,Lying,4
2019-01-20,16:24:35,2.98,2.53,8.799999,-0.12,-0.21,0.16,-0.12,-0.21,0.16,1,Lying,4
2019-01-20,16:24:35,2.81,2.03,8.58,-0.12,-0.21,0.16,-0.12,-0.21,0.16,1,Lying,4
2019-01-20,16:24:35,2.81,2.03,8.58,-0.089999996,0.0,0.01,-0.089999996,0.0,0.01,1,Lying,4
2019-01-20,16:24:35,1.93,2.56,8.48,-0.089999996,0.0,0.01,-0.089999996,0.0,0.01,1,Lying,4
2019-01-20,16:24:35,1.93,2.56,8.48,-0.049999997000000004,0.28,-0.06,-0.049999997000000004,0.28,-0.06,1,Lying,4
2019-01-20,16:24:35,1.29,2.35,8.719999000000001,-0.049999997000000004,0.28,-0.06,-0.049999997000000004,0.28,-0.06,1,Lying,4
2019-01-20,16:24:35,1.29,2.35,8.719999000000001,-0.049999997000000004,0.29999998,-0.049999997000000004,-0.049999997000000004,0.29999998,-0.049999997000000004,1,Lying,4
2019-01-20,16:24:35,1.27,2.17,8.83,-0.049999997000000004,0.29999998,-0.049999997000000004,-0.049999997000000004,0.29999998,-0.049999997000000004,1,Lying,4
2019-01-20,16:24:35,1.27,2.17,8.83,-0.049999997000000004,0.26,-0.02,-0.049999997000000004,0.26,-0.02,1,Lying,4
2019-01-20,16:24:35,1.3699999,2.5,8.7,-0.049999997000000004,0.26,-0.02,-0.049999997000000004,0.26,-0.02,1,Lying,4
2019-01-20,16:24:35,1.3699999,2.5,8.7,-0.01,0.11,-0.02,-0.01,0.11,-0.02,1,Lying,4
2019-01-20,16:24:35,1.6899998999999999,2.58,8.389999000000001,0.03,0.03,-0.02,0.03,0.03,-0.02,1,Lying,4
2019-01-20,16:24:35,1.6899998999999999,2.58,8.389999000000001,0.03,0.03,-0.02,0.03,0.03,-0.02,1,Lying,4
2019-01-20,16:24:36,1.67,2.5,8.339999,0.03,0.03,-0.02,0.03,0.03,-0.02,1,Lying,4
2019-01-20,16:24:36,1.67,2.5,8.339999,0.01,0.08,0.0,0.01,0.08,0.0,1,Lying,4
2019-01-20,16:24:36,1.51,2.4199998,8.469999000000001,0.01,0.08,0.0,0.01,0.08,0.0,1,Lying,4
2019-01-20,16:24:36,1.51,2.4199998,8.469999000000001,0.0,0.13,0.0,0.0,0.13,0.0,1,Lying,4
2019-01-20,16:24:36,1.39,2.25,8.809999000000001,0.0,0.13,0.0,0.0,0.13,0.0,1,Lying,4
2019-01-20,16:24:36,1.39,2.25,8.809999000000001,0.02,0.13,0.0,0.02,0.13,0.0,1,Lying,4
2019-01-20,16:24:36,1.2099999,2.5,8.559999000000001,0.02,0.13,0.0,0.02,0.13,0.0,1,Lying,4
2019-01-20,16:24:36,1.2099999,2.5,8.559999000000001,0.14999999,0.06,-0.02,0.14999999,0.06,-0.02,1,Lying,4
2019-01-20,16:24:36,1.0799999,2.71,7.7499994999999995,0.14999999,0.06,-0.02,0.14999999,0.06,-0.02,1,Lying,4
2019-01-20,16:24:36,1.0799999,2.71,7.7499994999999995,0.13,-0.049999997000000004,0.0,0.13,-0.049999997000000004,0.0,1,Lying,4
2019-01-20,16:24:36,1.16,2.61,8.21,0.13,-0.049999997000000004,0.0,0.13,-0.049999997000000004,0.0,1,Lying,4
2019-01-20,16:24:36,1.16,2.61,8.21,0.01,-0.049999997000000004,-0.06,0.01,-0.049999997000000004,-0.06,1,Lying,4
2019-01-20,16:24:36,1.1099999,2.77,8.11,0.01,-0.049999997000000004,-0.06,0.01,-0.049999997000000004,-0.06,1,Lying,4
2019-01-20,16:24:36,1.1099999,2.77,8.11,0.049999997000000004,-0.089999996,-0.02,0.049999997000000004,-0.089999996,-0.02,1,Lying,4
2019-01-20,16:24:36,2.21,2.5,8.99,0.049999997000000004,-0.089999996,-0.02,0.049999997000000004,-0.089999996,-0.02,1,Lying,4
2019-01-20,16:24:36,2.21,2.5,8.99,-0.089999996,-0.21,0.07,-0.089999996,-0.21,0.07,1,Lying,4
2019-01-20,16:24:36,1.8399999,2.37,8.849999,-0.089999996,-0.21,0.07,-0.089999996,-0.21,0.07,1,Lying,4
2019-01-20,16:24:36,1.8399999,2.37,8.849999,0.0,-0.03,0.0,0.0,-0.03,0.0,1,Lying,4
2019-01-20,16:24:36,0.97999996,2.62,7.93,0.0,-0.03,0.0,0.0,-0.03,0.0,1,Lying,4
2019-01-20,16:24:36,0.97999996,2.62,7.93,0.03,-0.01,-0.02,0.03,-0.01,-0.02,1,Lying,4
2019-01-20,16:24:36,2.11,2.79,8.91,0.03,-0.01,-0.02,0.03,-0.01,-0.02,1,Lying,4
2019-01-20,16:24:36,2.11,2.79,8.91,-0.06,-0.17999999,0.089999996,-0.06,-0.17999999,0.089999996,1,Lying,4
2019-01-20,16:24:36,2.24,2.37,8.83,-0.06,-0.17999999,0.089999996,-0.06,-0.17999999,0.089999996,1,Lying,4
2019-01-20,16:24:36,2.24,2.37,8.83,-0.02,0.01,0.04,-0.02,0.01,0.04,1,Lying,4
2019-01-20,16:24:36,1.04,2.58,7.809999499999999,-0.02,0.01,0.04,-0.02,0.01,0.04,1,Lying,4
2019-01-20,16:24:36,1.04,2.58,7.809999499999999,0.06,0.089999996,-0.07,0.06,0.089999996,-0.07,1,Lying,4
2019-01-20,16:24:36,1.52,2.6399999,8.389999000000001,0.06,0.089999996,-0.07,0.06,0.089999996,-0.07,1,Lying,4
2019-01-20,16:24:36,1.52,2.6399999,8.389999000000001,-0.02,-0.07,0.0,-0.02,-0.07,0.0,1,Lying,4
2019-01-20,16:24:36,1.9,2.44,8.9,-0.02,-0.07,0.0,-0.02,-0.07,0.0,1,Lying,4
2019-01-20,16:24:36,1.9,2.44,8.9,-0.06,-0.03,0.06,-0.06,-0.03,0.06,1,Lying,4
2019-01-20,16:24:36,1.93,2.58,8.41,-0.06,-0.03,0.06,-0.06,-0.03,0.06,1,Lying,4
2019-01-20,16:24:36,1.93,2.58,8.41,0.0,-0.01,0.03,0.0,-0.01,0.03,1,Lying,4
2019-01-20,16:24:36,1.66,2.6799998,8.309999000000001,0.0,-0.01,0.03,0.0,-0.01,0.03,1,Lying,4
2019-01-20,16:24:36,1.66,2.6799998,8.309999000000001,0.0,0.049999997000000004,0.01,0.0,0.049999997000000004,0.01,1,Lying,4
2019-01-20,16:24:36,1.4499999,2.6499999,8.12,-0.01,0.0,0.0,-0.01,0.0,0.0,1,Lying,4
2019-01-20,16:24:36,1.4499999,2.6499999,8.12,-0.01,0.0,0.0,-0.01,0.0,0.0,1,Lying,4
2019-01-20,16:24:36,2.11,2.4099998,8.889999000000001,-0.01,0.0,0.0,-0.01,0.0,0.0,1,Lying,4
2019-01-20,16:24:36,2.11,2.4099998,8.889999000000001,-0.06,-0.14,0.06,-0.06,-0.14,0.06,1,Lying,4
2019-01-20,16:24:36,1.9699999,2.37,8.95,-0.06,-0.14,0.06,-0.06,-0.14,0.06,1,Lying,4
2019-01-20,16:24:36,1.9699999,2.37,8.95,-0.02,0.0,0.02,-0.02,0.0,0.02,1,Lying,4
2019-01-20,16:24:36,1.77,2.5,8.21,-0.02,0.0,0.02,-0.02,0.0,0.02,1,Lying,4
2019-01-20,16:24:36,1.77,2.5,8.21,0.03,0.049999997000000004,-0.02,0.03,0.049999997000000004,-0.02,1,Lying,4
2019-01-20,16:24:36,1.51,2.51,8.309999000000001,0.03,0.049999997000000004,-0.02,0.03,0.049999997000000004,-0.02,1,Lying,4
2019-01-20,16:24:36,1.51,2.51,8.309999000000001,0.0,0.049999997000000004,-0.03,0.0,0.049999997000000004,-0.03,1,Lying,4
2019-01-20,16:24:36,1.89,2.3999999,8.69,0.0,0.049999997000000004,-0.03,0.0,0.049999997000000004,-0.03,1,Lying,4
2019-01-20,16:24:37,1.89,2.3999999,8.69,-0.04,-0.049999997000000004,0.0,-0.04,-0.049999997000000004,0.0,1,Lying,4
2019-01-20,16:24:37,1.66,2.52,8.57,-0.04,-0.049999997000000004,0.0,-0.04,-0.049999997000000004,0.0,1,Lying,4
2019-01-20,16:24:37,1.66,2.52,8.57,0.0,0.03,-0.03,0.0,0.03,-0.03,1,Lying,4
2019-01-20,16:24:37,1.52,2.5,8.389999000000001,0.0,0.03,-0.03,0.0,0.03,-0.03,1,Lying,4
2019-01-20,16:24:37,1.52,2.5,8.389999000000001,0.02,0.04,-0.01,0.02,0.04,-0.01,1,Lying,4
2019-01-20,16:24:37,1.66,2.48,8.42,0.02,0.04,-0.01,0.02,0.04,-0.01,1,Lying,4
2019-01-20,16:24:37,1.66,2.48,8.42,0.01,0.0,0.0,0.01,0.0,0.0,1,Lying,4
2019-01-20,16:24:37,1.79,2.45,8.469999000000001,0.01,0.0,0.0,0.01,0.0,0.0,1,Lying,4
2019-01-20,16:24:37,1.79,2.45,8.469999000000001,0.01,-0.03,0.0,0.01,-0.03,0.0,1,Lying,4
2019-01-20,16:24:37,1.7499999,2.54,8.45,0.01,-0.03,0.0,0.01,-0.03,0.0,1,Lying,4
2019-01-20,16:24:37,1.7499999,2.54,8.45,0.0,-0.01,-0.01,0.0,-0.01,-0.01,1,Lying,4
2019-01-20,16:24:37,1.7299999,2.47,8.549999,0.0,-0.01,-0.01,0.0,-0.01,-0.01,1,Lying,4
2019-01-20,16:24:37,1.7299999,2.47,8.549999,0.01,-0.03,-0.03,0.01,-0.03,-0.03,1,Lying,4
2019-01-20,16:24:37,1.8199999,2.54,8.559999000000001,0.01,-0.03,-0.03,0.01,-0.03,-0.03,1,Lying,4
2019-01-20,16:24:37,1.8199999,2.54,8.559999000000001,0.02,-0.04,-0.01,0.02,-0.04,-0.01,1,Lying,4
2019-01-20,16:24:37,1.51,2.59,8.179999,0.02,-0.04,-0.01,0.02,-0.04,-0.01,1,Lying,4
2019-01-20,16:24:37,1.51,2.59,8.179999,0.04,0.0,-0.03,0.04,0.0,-0.03,1,Lying,4
2019-01-20,16:24:37,1.81,2.54,8.37,0.04,0.0,-0.03,0.04,0.0,-0.03,1,Lying,4
2019-01-20,16:24:37,1.81,2.54,8.37,-0.01,-0.02,0.02,-0.01,-0.02,0.02,1,Lying,4
2019-01-20,16:24:37,1.9599999,2.57,8.429999,-0.01,-0.02,0.02,-0.01,-0.02,0.02,1,Lying,4
2019-01-20,16:24:37,1.9599999,2.57,8.429999,-0.02,-0.03,0.02,-0.02,-0.03,0.02,1,Lying,4
2019-01-20,16:24:37,1.89,2.46,8.549999,-0.02,-0.03,0.02,-0.02,-0.03,0.02,1,Lying,4
2019-01-20,16:24:37,1.89,2.46,8.549999,-0.02,0.02,0.0,-0.02,0.02,0.0,1,Lying,4
2019-01-20,16:24:37,1.53,2.55,8.379999,-0.02,0.02,0.0,-0.02,0.02,0.0,1,Lying,4
2019-01-20,16:24:37,1.53,2.55,8.379999,0.0,0.06,0.0,0.0,0.06,0.0,1,Lying,4
2019-01-20,16:24:37,1.67,2.55,8.33,0.0,0.06,0.0,0.0,0.06,0.0,1,Lying,4
2019-01-20,16:24:37,1.67,2.55,8.33,0.0,-0.01,0.01,0.0,-0.01,0.01,1,Lying,4
2019-01-20,16:24:37,1.9,2.54,8.45,0.0,-0.01,0.01,0.0,-0.01,0.01,1,Lying,4
2019-01-20,16:24:37,1.9,2.54,8.45,-0.03,-0.049999997000000004,0.02,-0.03,-0.049999997000000004,0.02,1,Lying,4
2019-01-20,16:24:37,1.89,2.37,8.639999000000001,-0.03,-0.049999997000000004,0.02,-0.03,-0.049999997000000004,0.02,1,Lying,4
2019-01-20,16:24:37,1.89,2.37,8.639999000000001,-0.04,0.0,0.01,-0.04,0.0,0.01,1,Lying,4
2019-01-20,16:24:37,2.05,2.44,8.769999499999999,-0.04,0.0,0.01,-0.04,0.0,0.01,1,Lying,4
2019-01-20,16:24:37,2.05,2.44,8.769999499999999,-0.04,0.01,0.01,-0.04,0.01,0.01,1,Lying,4
2019-01-20,16:24:37,1.66,2.51,8.5,-0.04,0.01,0.01,-0.04,0.01,0.01,1,Lying,4
2019-01-20,16:24:37,1.66,2.51,8.5,0.0,0.13,-0.03,0.0,0.13,-0.03,1,Lying,4
2019-01-20,16:24:37,1.5999999,2.5,8.36,0.0,0.13,-0.03,0.0,0.13,-0.03,1,Lying,4
2019-01-20,16:24:37,1.5999999,2.5,8.36,0.0,0.089999996,-0.02,0.0,0.089999996,-0.02,1,Lying,4
2019-01-20,16:24:37,1.78,2.47,8.639999000000001,0.0,0.089999996,-0.02,0.0,0.089999996,-0.02,1,Lying,4
2019-01-20,16:24:37,1.78,2.47,8.639999000000001,0.0,0.04,0.0,0.0,0.04,0.0,1,Lying,4
2019-01-20,16:24:37,1.4799999,2.31,8.69,0.0,0.04,0.0,0.0,0.04,0.0,1,Lying,4
2019-01-20,16:24:37,1.4799999,2.31,8.69,0.01,0.16,0.0,0.01,0.16,0.0,1,Lying,4
2019-01-20,16:24:37,1.27,2.46,8.299999,0.01,0.16,0.0,0.01,0.16,0.0,1,Lying,4
2019-01-20,16:24:37,1.27,2.46,8.299999,0.04,0.17,0.0,0.04,0.17,0.0,1,Lying,4
2019-01-20,16:24:37,1.4399998999999999,2.59,8.11,0.04,0.17,0.0,0.04,0.17,0.0,1,Lying,4
2019-01-20,16:24:38,1.4399998999999999,2.59,8.11,0.049999997000000004,0.08,0.0,0.049999997000000004,0.08,0.0,1,Lying,4
2019-01-20,16:24:38,1.5799999,2.6399999,8.349999,0.049999997000000004,0.08,0.0,0.049999997000000004,0.08,0.0,1,Lying,4
2019-01-20,16:24:38,1.5799999,2.6399999,8.349999,0.03,-0.01,0.0,0.03,-0.01,0.0,1,Lying,4
2019-01-20,16:24:38,1.6199999,2.3999999,8.679999,0.03,-0.01,0.0,0.03,-0.01,0.0,1,Lying,4
2019-01-20,16:24:38,1.6199999,2.3999999,8.679999,0.0,0.0,0.01,0.0,0.0,0.01,1,Lying,4
2019-01-20,16:24:38,1.3499999,2.43,8.629999,0.0,0.0,0.01,0.0,0.0,0.01,1,Lying,4
2019-01-20,16:24:38,1.3499999,2.43,8.629999,0.0,0.06,-0.02,0.0,0.06,-0.02,1,Lying,4
2019-01-20,16:24:38,1.52,2.58,8.37,0.0,0.06,-0.02,0.0,0.06,-0.02,1,Lying,4
2019-01-20,16:24:38,1.52,2.58,8.37,0.01,-0.02,0.0,0.01,-0.02,0.0,1,Lying,4
2019-01-20,16:24:38,1.78,2.5,8.549999,0.01,-0.02,0.0,0.01,-0.02,0.0,1,Lying,4
2019-01-20,16:24:38,1.78,2.5,8.549999,0.0,-0.089999996,-0.01,0.0,-0.089999996,-0.01,1,Lying,4
2019-01-20,16:24:38,1.4799999,2.4199998,8.37,0.0,-0.089999996,-0.01,0.0,-0.089999996,-0.01,1,Lying,4
2019-01-20,16:24:38,1.4799999,2.4199998,8.37,0.02,-0.02,-0.03,0.02,-0.02,-0.03,1,Lying,4
2019-01-20,16:24:38,1.6199999,2.6,8.519999499999999,0.02,-0.02,-0.03,0.02,-0.02,-0.03,1,Lying,4
2019-01-20,16:24:38,1.6199999,2.6,8.519999499999999,-0.02,-0.049999997000000004,0.0,-0.02,-0.049999997000000004,0.0,1,Lying,4
2019-01-20,16:24:38,1.66,2.6,8.469999000000001,-0.02,-0.049999997000000004,0.0,-0.02,-0.049999997000000004,0.0,1,Lying,4
2019-01-20,16:24:38,1.66,2.6,8.469999000000001,-0.02,0.0,0.0,-0.02,0.0,0.0,1,Lying,4
2019-01-20,16:24:38,1.39,2.49,8.379999,-0.02,0.0,0.0,-0.02,0.0,0.0,1,Lying,4
2019-01-20,16:24:38,1.39,2.49,8.379999,0.0,0.04,0.0,0.0,0.04,0.0,1,Lying,4
2019-01-20,16:24:38,1.5799999,2.5,8.629999,0.0,0.04,0.0,0.0,0.04,0.0,1,Lying,4
2019-01-20,16:24:38,1.5799999,2.5,8.629999,-0.02,-0.01,0.01,-0.02,-0.01,0.01,1,Lying,4
2019-01-20,16:24:38,1.5699999,2.5,8.389999000000001,-0.02,-0.01,0.01,-0.02,-0.01,0.01,1,Lying,4
2019-01-20,16:24:38,1.5699999,2.5,8.389999000000001,0.0,-0.02,0.0,0.0,-0.02,0.0,1,Lying,4
2019-01-20,16:24:38,1.7499999,2.45,8.61,0.0,-0.02,0.0,0.0,-0.02,0.0,1,Lying,4
2019-01-20,16:24:38,1.7499999,2.45,8.61,-0.02,-0.02,0.0,-0.02,-0.02,0.0,1,Lying,4
2019-01-20,16:24:38,1.7499999,2.45,8.61,-0.02,-0.02,0.0,-0.02,-0.02,0.0,1,Lying,4
2019-01-20,16:24:38,1.4899999,2.5,8.49,-0.02,-0.02,0.0,-0.02,-0.02,0.0,1,Lying,4
2019-01-20,16:24:38,1.4899999,2.5,8.49,0.0,0.03,-0.01,0.0,0.03,-0.01,1,Lying,4
2019-01-20,16:24:38,1.6299999,2.52,8.48,0.0,-0.01,0.0,0.0,-0.01,0.0,1,Lying,4
2019-01-20,16:24:38,1.6299999,2.52,8.48,0.0,-0.01,0.0,0.0,-0.01,0.0,1,Lying,4
2019-01-20,16:24:38,1.41,2.49,8.549999,0.0,-0.01,0.0,0.0,-0.01,0.0,1,Lying,4
2019-01-20,16:24:38,1.41,2.49,8.549999,-0.02,0.01,-0.01,-0.02,0.01,-0.01,1,Lying,4
2019-01-20,16:24:38,1.4999999,2.49,8.549999,-0.02,0.01,-0.01,-0.02,0.01,-0.01,1,Lying,4
2019-01-20,16:24:38,1.4999999,2.49,8.549999,-0.01,-0.01,0.0,-0.01,-0.01,0.0,1,Lying,4
2019-01-20,16:24:38,1.6199999,2.44,8.62,-0.01,-0.01,0.0,-0.01,-0.01,0.0,1,Lying,4
2019-01-20,16:24:38,1.6199999,2.44,8.62,0.0,0.0,0.0,0.0,0.0,0.0,1,Lying,4
2019-01-20,16:24:38,1.4499999,2.46,8.44,0.02,0.0,0.0,0.02,0.0,0.0,1,Lying,4
