date,time,accX,accY,accZ,gyroX,gyroY,gyroZ,magX,magY,magZ,Trial,activity,activity_number
2019-01-20,16:27:33,1.8599999,2.31,-9.53,0.19999999,0.61,-0.74,0.19999999,0.61,-0.74,2,Lying,4
2019-01-20,16:27:33,1.8599999,2.31,-9.53,-0.06,0.78,-0.66999996,-0.06,0.78,-0.66999996,2,Lying,4
2019-01-20,16:27:33,2.31,1.5899999,-9.0,-0.06,0.78,-0.66999996,-0.06,0.78,-0.66999996,2,Lying,4
2019-01-20,16:27:33,2.31,1.5899999,-9.0,-0.21,0.76,-0.79999995,-0.21,0.76,-0.79999995,2,Lying,4
2019-01-20,16:27:33,2.27,2.57,-8.47,-0.21,0.76,-0.79999995,-0.21,0.76,-0.79999995,2,Lying,4
2019-01-20,16:27:33,2.27,2.57,-8.47,-0.37,0.57,-0.87,-0.37,0.57,-0.87,2,Lying,4
2019-01-20,16:27:33,0.84,4.02,-8.46,-0.37,0.57,-0.87,-0.37,0.57,-0.87,2,Lying,4
2019-01-20,16:27:33,0.84,4.02,-8.46,-0.55,0.13,-0.85999995,-0.55,0.13,-0.85999995,2,Lying,4
2019-01-20,16:27:33,0.32,5.7799997,-8.1,-0.55,0.13,-0.85999995,-0.55,0.13,-0.85999995,2,Lying,4
2019-01-20,16:27:33,0.32,5.7799997,-8.1,-0.83,-0.08,-0.29,-0.83,-0.08,-0.29,2,Lying,4
2019-01-20,16:27:33,1.9899999,7.33,-8.22,-0.83,-0.08,-0.29,-0.83,-0.08,-0.29,2,Lying,4
2019-01-20,16:27:33,1.9899999,7.33,-8.22,-1.0,0.16,0.51,-1.0,0.16,0.51,2,Lying,4
2019-01-20,16:27:33,3.6,4.0,-2.36,-1.0,0.16,0.51,-1.0,0.16,0.51,2,Lying,4
2019-01-20,16:27:33,3.6,4.0,-2.36,-0.84999996,1.11,0.48999998,-0.84999996,1.11,0.48999998,2,Lying,4
2019-01-20,16:27:33,2.98,5.74,-8.019999499999999,-0.84999996,1.11,0.48999998,-0.84999996,1.11,0.48999998,2,Lying,4
2019-01-20,16:27:34,2.98,5.74,-8.019999499999999,-0.14,-0.17,0.089999996,-0.14,-0.17,0.089999996,2,Lying,4
2019-01-20,16:27:34,1.89,5.39,-5.34,-0.51,-1.25,-0.34,-0.51,-1.25,-0.34,2,Lying,4
2019-01-20,16:27:34,1.89,5.39,-5.34,-0.51,-1.25,-0.34,-0.51,-1.25,-0.34,2,Lying,4
2019-01-20,16:27:34,1.6099999,4.0,-4.28,-0.51,-1.25,-0.34,-0.51,-1.25,-0.34,2,Lying,4
2019-01-20,16:27:34,1.6099999,4.0,-4.28,-0.51,-0.81,-1.05,-0.51,-0.81,-1.05,2,Lying,4
2019-01-20,16:27:34,1.6099999,4.0,-4.28,-0.51,-0.81,-1.05,-0.51,-0.81,-1.05,2,Lying,4
2019-01-20,16:27:34,-0.31,1.76,-6.11,-0.51,-0.81,-1.05,-0.51,-0.81,-1.05,2,Lying,4
2019-01-20,16:27:34,-0.31,1.76,-6.11,0.32,-0.89,-1.56,0.32,-0.89,-1.56,2,Lying,4
2019-01-20,16:27:34,2.02,2.75,-9.09,0.32,-0.89,-1.56,0.32,-0.89,-1.56,2,Lying,4
2019-01-20,16:27:34,2.02,2.75,-9.09,1.11,-0.71999997,-0.78999996,1.11,-0.71999997,-0.78999996,2,Lying,4
2019-01-20,16:27:34,2.24,4.37,-9.48,1.11,-0.71999997,-0.78999996,1.11,-0.71999997,-0.78999996,2,Lying,4
2019-01-20,16:27:34,2.24,4.37,-9.48,1.4499999,-1.23,-0.09999999400000001,1.4499999,-1.23,-0.09999999400000001,2,Lying,4
2019-01-20,16:27:34,2.57,5.38,-10.85,1.4499999,-1.23,-0.09999999400000001,1.4499999,-1.23,-0.09999999400000001,2,Lying,4
2019-01-20,16:27:34,2.57,5.38,-10.85,1.63,-0.91999996,0.04,1.63,-0.91999996,0.04,2,Lying,4
2019-01-20,16:27:34,1.29,3.4199998,-10.8,1.63,-0.91999996,0.04,1.63,-0.91999996,0.04,2,Lying,4
2019-01-20,16:27:34,1.29,3.4199998,-10.8,1.3199999,0.52,0.19999999,1.3199999,0.52,0.19999999,2,Lying,4
2019-01-20,16:27:34,-0.76,3.25,-10.57,1.3199999,0.52,0.19999999,1.3199999,0.52,0.19999999,2,Lying,4
2019-01-20,16:27:34,-0.76,3.25,-10.57,1.0699999,1.3299999,0.06,1.0699999,1.3299999,0.06,2,Lying,4
2019-01-20,16:27:34,-0.35999998,4.31,-10.19,1.0699999,1.3299999,0.06,1.0699999,1.3299999,0.06,2,Lying,4
2019-01-20,16:27:34,-0.35999998,4.31,-10.19,0.59999996,0.87,0.02,0.59999996,0.87,0.02,2,Lying,4
2019-01-20,16:27:34,-2.25,3.01,-9.86,0.59999996,0.87,0.02,0.59999996,0.87,0.02,2,Lying,4
2019-01-20,16:27:34,-2.25,3.01,-9.86,0.32,0.51,-0.21,0.32,0.51,-0.21,2,Lying,4
2019-01-20,16:27:34,0.37,1.31,-9.49,0.32,0.51,-0.21,0.32,0.51,-0.21,2,Lying,4
2019-01-20,16:27:34,0.37,1.31,-9.49,0.07,-0.56,0.22,0.07,-0.56,0.22,2,Lying,4
2019-01-20,16:27:34,0.84999996,2.43,-9.2,0.07,-0.56,0.22,0.07,-0.56,0.22,2,Lying,4
2019-01-20,16:27:34,0.84999996,2.43,-9.2,0.53,-0.7,0.37,0.53,-0.7,0.37,2,Lying,4
2019-01-20,16:27:34,-1.3,1.6099999,-10.73,0.53,-0.7,0.37,0.53,-0.7,0.37,2,Lying,4
2019-01-20,16:27:34,-1.3,1.6099999,-10.73,0.48999998,-0.06,0.09999999400000001,0.48999998,-0.06,0.09999999400000001,2,Lying,4
2019-01-20,16:27:34,0.58,1.6700001,-11.21,0.48999998,-0.06,0.09999999400000001,0.48999998,-0.06,0.09999999400000001,2,Lying,4
2019-01-20,16:27:34,0.58,1.6700001,-11.21,0.31,-0.59,0.34,0.31,-0.59,0.34,2,Lying,4
2019-01-20,16:27:34,2.1699998,1.9099998,-11.22,0.31,-0.59,0.34,0.31,-0.59,0.34,2,Lying,4
2019-01-20,16:27:34,2.1699998,1.9099998,-11.22,0.17,0.14999999,0.37,0.17,0.14999999,0.37,2,Lying,4
2019-01-20,16:27:34,0.87999994,1.05,-10.75,0.17,0.14999999,0.37,0.17,0.14999999,0.37,2,Lying,4
2019-01-20,16:27:34,0.87999994,1.05,-10.75,0.0,0.11,0.13,0.0,0.11,0.13,2,Lying,4
2019-01-20,16:27:34,1.2299999,1.37,-9.92,0.0,0.11,0.13,0.0,0.11,0.13,2,Lying,4
2019-01-20,16:27:34,1.2299999,1.37,-9.92,-0.14999999,-0.32,0.0,-0.14999999,-0.32,0.0,2,Lying,4
2019-01-20,16:27:34,0.16,1.76,-10.11,-0.14999999,-0.32,0.0,-0.14999999,-0.32,0.0,2,Lying,4
2019-01-20,16:27:34,0.16,1.76,-10.11,-0.01,-0.14,-0.25,-0.01,-0.14,-0.25,2,Lying,4
2019-01-20,16:27:34,0.77,2.04,-9.78,-0.01,-0.14,-0.25,-0.01,-0.14,-0.25,2,Lying,4
2019-01-20,16:27:34,0.77,2.04,-9.78,0.0,0.09999999400000001,-0.22,0.0,0.09999999400000001,-0.22,2,Lying,4
2019-01-20,16:27:34,0.68999994,1.79,-9.92,0.0,0.09999999400000001,-0.22,0.0,0.09999999400000001,-0.22,2,Lying,4
2019-01-20,16:27:34,0.68999994,1.79,-9.92,-0.03,-0.049999997000000004,-0.29999998,-0.03,-0.049999997000000004,-0.29999998,2,Lying,4
2019-01-20,16:27:34,0.29999998,1.6199999,-10.08,-0.03,-0.049999997000000004,-0.29999998,-0.03,-0.049999997000000004,-0.29999998,2,Lying,4
2019-01-20,16:27:35,0.29999998,1.6199999,-10.08,-0.09999999400000001,-0.07,-0.34,-0.09999999400000001,-0.07,-0.34,2,Lying,4
2019-01-20,16:27:35,-1.53,2.07,-9.86,-0.09999999400000001,-0.07,-0.34,-0.09999999400000001,-0.07,-0.34,2,Lying,4
2019-01-20,16:27:35,-1.53,2.07,-9.86,-0.07,0.02,-0.37,-0.07,0.02,-0.37,2,Lying,4
2019-01-20,16:27:35,0.62999994,2.07,-9.47,-0.07,0.02,-0.37,-0.07,0.02,-0.37,2,Lying,4
2019-01-20,16:27:35,0.62999994,2.07,-9.47,-0.19,0.0,-0.049999997000000004,-0.19,0.0,-0.049999997000000004,2,Lying,4
2019-01-20,16:27:35,0.35,1.9099998,-9.75,-0.19,0.0,-0.049999997000000004,-0.19,0.0,-0.049999997000000004,2,Lying,4
2019-01-20,16:27:35,0.35,1.9099998,-9.75,-0.049999997000000004,0.12,-0.14999999,-0.049999997000000004,0.12,-0.14999999,2,Lying,4
2019-01-20,16:27:35,-0.22,1.8699999,-9.3,-0.049999997000000004,0.12,-0.14999999,-0.049999997000000004,0.12,-0.14999999,2,Lying,4
2019-01-20,16:27:35,-0.22,1.8699999,-9.3,0.0,0.26999998,-0.14,0.0,0.26999998,-0.14,2,Lying,4
2019-01-20,16:27:35,-0.63,1.77,-9.32,0.0,0.26999998,-0.14,0.0,0.26999998,-0.14,2,Lying,4
2019-01-20,16:27:35,-0.63,1.77,-9.32,0.07,0.14999999,-0.11,0.07,0.14999999,-0.11,2,Lying,4
2019-01-20,16:27:35,-0.65000004,1.69,-9.53,0.07,0.14999999,-0.11,0.07,0.14999999,-0.11,2,Lying,4
2019-01-20,16:27:35,-0.65000004,1.69,-9.53,0.06,0.089999996,-0.09999999400000001,0.06,0.089999996,-0.09999999400000001,2,Lying,4
2019-01-20,16:27:35,0.02,2.17,-10.16,0.06,0.089999996,-0.09999999400000001,0.06,0.089999996,-0.09999999400000001,2,Lying,4
2019-01-20,16:27:35,0.02,2.17,-10.16,0.11,0.16,0.0,0.11,0.16,0.0,2,Lying,4
2019-01-20,16:27:35,0.71999997,1.71,-9.87,0.11,0.16,0.0,0.11,0.16,0.0,2,Lying,4
2019-01-20,16:27:35,0.71999997,1.71,-9.87,0.12,0.0,0.07,0.12,0.0,0.07,2,Lying,4
2019-01-20,16:27:35,0.71,1.78,-9.95,0.12,0.0,0.07,0.12,0.0,0.07,2,Lying,4
2019-01-20,16:27:35,0.71,1.78,-9.95,0.11,0.07,0.07,0.11,0.07,0.07,2,Lying,4
2019-01-20,16:27:35,0.4,1.7,-10.23,0.11,0.07,0.07,0.11,0.07,0.07,2,Lying,4
2019-01-20,16:27:35,0.4,1.7,-10.23,0.07,0.16,0.03,0.07,0.16,0.03,2,Lying,4
2019-01-20,16:27:35,-0.64,1.8,-10.61,0.07,0.16,0.03,0.07,0.16,0.03,2,Lying,4
2019-01-20,16:27:35,-0.64,1.8,-10.61,-0.03,0.09999999400000001,0.01,-0.03,0.09999999400000001,0.01,2,Lying,4
2019-01-20,16:27:35,0.08,1.8899999,-10.22,-0.03,0.09999999400000001,0.01,-0.03,0.09999999400000001,0.01,2,Lying,4
2019-01-20,16:27:35,0.08,1.8899999,-10.22,-0.089999996,-0.45,0.089999996,-0.089999996,-0.45,0.089999996,2,Lying,4
2019-01-20,16:27:35,0.58,1.78,-10.3,-0.089999996,-0.45,0.089999996,-0.089999996,-0.45,0.089999996,2,Lying,4
2019-01-20,16:27:35,0.58,1.78,-10.3,-0.19999999,-0.11,0.25,-0.19999999,-0.11,0.25,2,Lying,4
2019-01-20,16:27:35,1.5899999,2.1,-9.93,-0.19999999,-0.11,0.25,-0.19999999,-0.11,0.25,2,Lying,4
2019-01-20,16:27:35,1.5899999,2.1,-9.93,-0.35,-0.049999997000000004,0.29,-0.35,-0.049999997000000004,0.29,2,Lying,4
2019-01-20,16:27:35,0.9,1.8999999,-9.65,-0.35,-0.049999997000000004,0.29,-0.35,-0.049999997000000004,0.29,2,Lying,4
2019-01-20,16:27:35,0.9,1.8999999,-9.65,-0.48,0.0,0.049999997000000004,-0.48,0.0,0.049999997000000004,2,Lying,4
2019-01-20,16:27:35,0.48,2.32,-9.88,-0.48,0.0,0.049999997000000004,-0.48,0.0,0.049999997000000004,2,Lying,4
2019-01-20,16:27:35,0.48,2.32,-9.88,-0.48999998,0.0,0.13,-0.48999998,0.0,0.13,2,Lying,4
2019-01-20,16:27:35,-0.54,2.76,-10.24,-0.48999998,0.0,0.13,-0.48999998,0.0,0.13,2,Lying,4
2019-01-20,16:27:35,-0.54,2.76,-10.24,-0.17,0.21,0.0,-0.17,0.21,0.0,2,Lying,4
2019-01-20,16:27:35,-0.62,2.51,-9.69,-0.17,0.21,0.0,-0.17,0.21,0.0,2,Lying,4
2019-01-20,16:27:35,-0.62,2.51,-9.69,-0.12,0.41,0.0,-0.12,0.41,0.0,2,Lying,4
2019-01-20,16:27:35,1.66,2.84,-9.27,-0.12,0.41,0.0,-0.12,0.41,0.0,2,Lying,4
2019-01-20,16:27:35,1.66,2.84,-9.27,-0.22999999,0.01,0.26999998,-0.22999999,0.01,0.26999998,2,Lying,4
2019-01-20,16:27:35,1.0999999,2.72,-9.4,-0.22999999,0.01,0.26999998,-0.22999999,0.01,0.26999998,2,Lying,4
2019-01-20,16:27:35,1.0999999,2.72,-9.4,-0.049999997000000004,0.26999998,0.11,-0.049999997000000004,0.26999998,0.11,2,Lying,4
2019-01-20,16:27:35,0.71999997,2.84,-9.45,-0.049999997000000004,0.26999998,0.11,-0.049999997000000004,0.26999998,0.11,2,Lying,4
2019-01-20,16:27:35,0.71999997,2.84,-9.45,-0.089999996,0.39,0.07,-0.089999996,0.39,0.07,2,Lying,4
2019-01-20,16:27:35,0.97999996,2.6699998,-9.34,-0.089999996,0.39,0.07,-0.089999996,0.39,0.07,2,Lying,4
2019-01-20,16:27:36,0.97999996,2.6699998,-9.34,0.01,0.39999998,0.17999999,0.01,0.39999998,0.17999999,2,Lying,4
2019-01-20,16:27:36,1.4899999,2.77,-9.64,0.01,0.39999998,0.17999999,0.01,0.39999998,0.17999999,2,Lying,4
2019-01-20,16:27:36,1.4899999,2.77,-9.64,0.11,0.37,0.17999999,0.11,0.37,0.17999999,2,Lying,4
2019-01-20,16:27:36,1.9399998999999999,2.72,-9.42,0.11,0.37,0.17999999,0.11,0.37,0.17999999,2,Lying,4
2019-01-20,16:27:36,1.9399998999999999,2.72,-9.42,0.02,0.29,0.17999999,0.02,0.29,0.17999999,2,Lying,4
2019-01-20,16:27:36,1.8,2.56,-9.65,0.02,0.29,0.17999999,0.02,0.29,0.17999999,2,Lying,4
2019-01-20,16:27:36,1.8,2.56,-9.65,0.04,0.22999999,0.17,0.04,0.22999999,0.17,2,Lying,4
2019-01-20,16:27:36,2.07,2.55,-9.85,0.04,0.22999999,0.17,0.04,0.22999999,0.17,2,Lying,4
2019-01-20,16:27:36,2.07,2.55,-9.85,-0.04,0.22,0.13,-0.04,0.22,0.13,2,Lying,4
2019-01-20,16:27:36,1.9599999,2.76,-9.82,-0.04,0.22,0.13,-0.04,0.22,0.13,2,Lying,4
2019-01-20,16:27:36,1.9599999,2.76,-9.82,-0.049999997000000004,0.31,0.12,-0.049999997000000004,0.31,0.12,2,Lying,4
2019-01-20,16:27:36,2.06,2.87,-9.75,-0.049999997000000004,0.31,0.12,-0.049999997000000004,0.31,0.12,2,Lying,4
2019-01-20,16:27:36,2.06,2.87,-9.75,-0.12,0.28,0.14,-0.12,0.28,0.14,2,Lying,4
2019-01-20,16:27:36,2.26,2.9199998,-9.97,-0.12,0.28,0.14,-0.12,0.28,0.14,2,Lying,4
2019-01-20,16:27:36,2.26,2.9199998,-9.97,-0.17,0.21,0.12,-0.17,0.21,0.12,2,Lying,4
2019-01-20,16:27:36,2.4199998,2.85,-9.98,-0.17,0.21,0.12,-0.17,0.21,0.12,2,Lying,4
2019-01-20,16:27:36,2.4199998,2.85,-9.98,-0.26,-0.12,0.04,-0.26,-0.12,0.04,2,Lying,4
2019-01-20,16:27:36,2.3899999,2.55,-8.14,-0.26,-0.12,0.04,-0.26,-0.12,0.04,2,Lying,4
2019-01-20,16:27:36,2.3899999,2.55,-8.14,-0.11,-0.90999997,-0.08,-0.11,-0.90999997,-0.08,2,Lying,4
2019-01-20,16:27:36,2.35,2.94,-8.77,-0.11,-0.90999997,-0.08,-0.11,-0.90999997,-0.08,2,Lying,4
2019-01-20,16:27:36,2.35,2.94,-8.77,-0.19999999,0.09999999400000001,-0.08,-0.19999999,0.09999999400000001,-0.08,2,Lying,4
2019-01-20,16:27:36,1.66,3.07,-9.12,-0.19999999,0.09999999400000001,-0.08,-0.19999999,0.09999999400000001,-0.08,2,Lying,4
2019-01-20,16:27:36,1.66,3.07,-9.12,-0.19,0.17999999,-0.09999999400000001,-0.19,0.17999999,-0.09999999400000001,2,Lying,4
2019-01-20,16:27:36,1.3199999,2.98,-8.38,-0.19,0.17999999,-0.09999999400000001,-0.19,0.17999999,-0.09999999400000001,2,Lying,4
2019-01-20,16:27:36,1.3199999,2.98,-8.38,-0.16,-0.31,-0.08,-0.16,-0.31,-0.08,2,Lying,4
2019-01-20,16:27:36,1.3199999,2.87,-8.25,-0.16,-0.31,-0.08,-0.16,-0.31,-0.08,2,Lying,4
2019-01-20,16:27:36,1.3199999,2.87,-8.25,0.0,-0.21,0.02,0.0,-0.21,0.02,2,Lying,4
2019-01-20,16:27:36,1.43,3.01,-9.01,0.0,-0.21,0.02,0.0,-0.21,0.02,2,Lying,4
2019-01-20,16:27:36,1.43,3.01,-9.01,0.17999999,-0.089999996,0.13,0.17999999,-0.089999996,0.13,2,Lying,4
2019-01-20,16:27:36,1.9899999,2.8899999,-9.81,0.17999999,-0.089999996,0.13,0.17999999,-0.089999996,0.13,2,Lying,4
2019-01-20,16:27:36,1.9899999,2.8899999,-9.81,0.22,-0.12,0.17,0.22,-0.12,0.17,2,Lying,4
2019-01-20,16:27:36,2.61,2.8899999,-9.85,0.22,-0.12,0.17,0.22,-0.12,0.17,2,Lying,4
2019-01-20,16:27:36,2.61,2.8899999,-9.85,0.14999999,-0.24,0.09999999400000001,0.14999999,-0.24,0.09999999400000001,2,Lying,4
2019-01-20,16:27:36,2.09,3.0,-10.19,0.14999999,-0.24,0.09999999400000001,0.14999999,-0.24,0.09999999400000001,2,Lying,4
2019-01-20,16:27:36,2.09,3.0,-10.19,0.09999999400000001,-0.089999996,-0.01,0.09999999400000001,-0.089999996,-0.01,2,Lying,4
2019-01-20,16:27:36,1.13,3.02,-10.61,0.09999999400000001,-0.089999996,-0.01,0.09999999400000001,-0.089999996,-0.01,2,Lying,4
2019-01-20,16:27:36,1.13,3.02,-10.61,-0.11,0.28,-0.01,-0.11,0.28,-0.01,2,Lying,4
2019-01-20,16:27:36,1.6999999,2.81,-9.47,-0.11,0.28,-0.01,-0.11,0.28,-0.01,2,Lying,4
2019-01-20,16:27:36,1.6999999,2.81,-9.47,-0.32999998,0.34,0.07,-0.32999998,0.34,0.07,2,Lying,4
2019-01-20,16:27:36,2.11,3.1399999,-9.03,-0.32999998,0.34,0.07,-0.32999998,0.34,0.07,2,Lying,4
2019-01-20,16:27:36,2.11,3.1399999,-9.03,-0.39999998,0.44,0.089999996,-0.39999998,0.44,0.089999996,2,Lying,4
2019-01-20,16:27:36,1.91,3.21,-9.23,-0.39999998,0.44,0.089999996,-0.39999998,0.44,0.089999996,2,Lying,4
2019-01-20,16:27:37,1.91,3.21,-9.23,-0.35,0.29,0.07,-0.35,0.29,0.07,2,Lying,4
2019-01-20,16:27:37,1.8699999,3.24,-8.65,-0.35,0.29,0.07,-0.35,0.29,0.07,2,Lying,4
2019-01-20,16:27:37,1.8699999,3.24,-8.65,-0.29,0.11,0.089999996,-0.29,0.11,0.089999996,2,Lying,4
2019-01-20,16:27:37,2.1599998,3.25,-8.58,-0.29,0.11,0.089999996,-0.29,0.11,0.089999996,2,Lying,4
2019-01-20,16:27:37,2.1599998,3.25,-8.58,-0.03,-0.01,0.04,-0.03,-0.01,0.04,2,Lying,4
2019-01-20,16:27:37,2.1499999,3.22,-8.88,-0.03,-0.01,0.04,-0.03,-0.01,0.04,2,Lying,4
2019-01-20,16:27:37,2.1499999,3.22,-8.88,0.089999996,-0.01,0.049999997000000004,0.089999996,-0.01,0.049999997000000004,2,Lying,4
2019-01-20,16:27:37,2.4599998,3.33,-9.45,0.089999996,-0.01,0.049999997000000004,0.089999996,-0.01,0.049999997000000004,2,Lying,4
2019-01-20,16:27:37,2.4599998,3.33,-9.45,0.13,-0.049999997000000004,0.03,0.13,-0.049999997000000004,0.03,2,Lying,4
2019-01-20,16:27:37,2.4099998,3.36,-9.62,0.13,-0.049999997000000004,0.03,0.13,-0.049999997000000004,0.03,2,Lying,4
2019-01-20,16:27:37,2.4099998,3.36,-9.62,0.049999997000000004,0.0,0.02,0.049999997000000004,0.0,0.02,2,Lying,4
2019-01-20,16:27:37,2.48,3.1599998,-9.07,0.049999997000000004,0.0,0.02,0.049999997000000004,0.0,0.02,2,Lying,4
2019-01-20,16:27:37,2.48,3.1599998,-9.07,-0.02,0.03,-0.01,-0.02,0.03,-0.01,2,Lying,4
2019-01-20,16:27:37,1.9499999,3.28,-9.04,-0.02,0.03,-0.01,-0.02,0.03,-0.01,2,Lying,4
2019-01-20,16:27:37,1.9499999,3.28,-9.04,-0.03,0.06,-0.07,-0.03,0.06,-0.07,2,Lying,4
2019-01-20,16:27:37,1.8799999,3.25,-8.98,-0.03,0.06,-0.07,-0.03,0.06,-0.07,2,Lying,4
2019-01-20,16:27:37,1.8799999,3.25,-8.98,-0.01,0.02,-0.03,-0.01,0.02,-0.03,2,Lying,4
2019-01-20,16:27:37,2.1499999,3.29,-9.04,-0.01,0.02,-0.03,-0.01,0.02,-0.03,2,Lying,4
2019-01-20,16:27:37,2.1499999,3.29,-9.04,0.03,0.0,0.04,0.03,0.0,0.04,2,Lying,4
2019-01-20,16:27:37,2.49,3.35,-9.29,0.03,0.0,0.04,0.03,0.0,0.04,2,Lying,4
2019-01-20,16:27:37,2.49,3.35,-9.29,0.049999997000000004,0.0,0.049999997000000004,0.049999997000000004,0.0,0.049999997000000004,2,Lying,4
2019-01-20,16:27:37,2.37,3.27,-9.31,0.049999997000000004,0.0,0.049999997000000004,0.049999997000000004,0.0,0.049999997000000004,2,Lying,4
2019-01-20,16:27:37,2.37,3.27,-9.31,-0.01,0.01,0.03,-0.01,0.01,0.03,2,Lying,4
2019-01-20,16:27:37,2.33,3.23,-9.12,-0.01,0.01,0.03,-0.01,0.01,0.03,2,Lying,4
2019-01-20,16:27:37,2.33,3.23,-9.12,-0.07,0.06,0.0,-0.07,0.06,0.0,2,Lying,4
2019-01-20,16:27:37,2.32,3.25,-9.07,-0.07,0.06,0.0,-0.07,0.06,0.0,2,Lying,4
2019-01-20,16:27:37,2.32,3.25,-9.07,-0.08,0.049999997000000004,0.01,-0.08,0.049999997000000004,0.01,2,Lying,4
2019-01-20,16:27:37,2.35,3.28,-8.82,-0.08,0.049999997000000004,0.01,-0.08,0.049999997000000004,0.01,2,Lying,4
2019-01-20,16:27:37,2.35,3.28,-8.82,-0.03,0.02,0.01,-0.03,0.02,0.01,2,Lying,4
2019-01-20,16:27:37,2.4599998,3.32,-8.94,-0.03,0.02,0.01,-0.03,0.02,0.01,2,Lying,4
2019-01-20,16:27:37,2.4599998,3.32,-8.94,0.01,0.0,0.01,0.01,0.0,0.01,2,Lying,4
2019-01-20,16:27:37,2.3899999,3.33,-9.04,0.01,0.0,0.01,0.01,0.0,0.01,2,Lying,4
2019-01-20,16:27:37,2.3899999,3.33,-9.04,0.02,-0.01,0.0,0.02,-0.01,0.0,2,Lying,4
2019-01-20,16:27:37,2.36,3.29,-9.24,0.02,-0.01,0.0,0.02,-0.01,0.0,2,Lying,4
2019-01-20,16:27:37,2.36,3.29,-9.24,0.02,-0.01,0.0,0.02,-0.01,0.0,2,Lying,4
2019-01-20,16:27:37,2.3999999,3.4299998,-9.13,0.02,-0.01,0.0,0.02,-0.01,0.0,2,Lying,4
2019-01-20,16:27:37,2.3999999,3.4299998,-9.13,0.0,-0.04,0.0,0.0,-0.04,0.0,2,Lying,4
2019-01-20,16:27:37,2.33,3.32,-9.18,0.0,-0.04,0.0,0.0,-0.04,0.0,2,Lying,4
2019-01-20,16:27:37,2.33,3.32,-9.18,-0.01,0.09999999400000001,0.0,-0.01,0.09999999400000001,0.0,2,Lying,4
2019-01-20,16:27:37,2.4499998,3.26,-9.01,-0.01,0.09999999400000001,0.0,-0.01,0.09999999400000001,0.0,2,Lying,4
2019-01-20,16:27:37,2.4499998,3.26,-9.01,-0.02,-0.03,0.01,-0.02,-0.03,0.01,2,Lying,4
2019-01-20,16:27:38,2.4199998,3.22,-8.98,-0.02,-0.03,0.01,-0.02,-0.03,0.01,2,Lying,4
2019-01-20,16:27:38,2.4199998,3.22,-8.98,-0.01,0.0,0.0,-0.01,0.0,0.0,2,Lying,4
2019-01-20,16:27:38,2.1699998,3.33,-8.99,-0.01,0.0,0.0,-0.01,0.0,0.0,2,Lying,4
2019-01-20,16:27:38,2.1699998,3.33,-8.99,0.02,-0.06,-0.01,0.02,-0.06,-0.01,2,Lying,4
2019-01-20,16:27:38,2.36,3.34,-9.07,0.02,-0.06,-0.01,0.02,-0.06,-0.01,2,Lying,4
2019-01-20,16:27:38,2.36,3.34,-9.07,0.01,-0.07,0.01,0.01,-0.07,0.01,2,Lying,4
2019-01-20,16:27:38,2.52,3.32,-9.19,0.01,-0.07,0.01,0.01,-0.07,0.01,2,Lying,4
2019-01-20,16:27:38,2.52,3.32,-9.19,0.0,0.0,0.02,0.0,0.0,0.02,2,Lying,4
2019-01-20,16:27:38,2.52,3.32,-9.19,0.0,0.02,-0.02,0.0,0.02,-0.02,2,Lying,4
2019-01-20,16:27:38,2.22,3.1399999,-9.03,0.0,0.02,-0.02,0.0,0.02,-0.02,2,Lying,4
2019-01-20,16:27:38,2.22,3.1399999,-9.03,0.0,0.0,-0.03,0.0,0.0,-0.03,2,Lying,4
2019-01-20,16:27:38,2.24,3.33,-9.06,0.0,0.0,-0.03,0.0,0.0,-0.03,2,Lying,4
2019-01-20,16:27:38,2.24,3.33,-9.06,0.0,-0.02,-0.01,0.0,-0.02,-0.01,2,Lying,4
2019-01-20,16:27:38,2.1499999,3.37,-9.07,0.0,-0.02,-0.01,0.0,-0.02,-0.01,2,Lying,4
2019-01-20,16:27:38,2.1499999,3.37,-9.07,0.02,0.0,0.0,0.02,0.0,0.0,2,Lying,4
2019-01-20,16:27:38,2.4599998,3.22,-9.2,0.02,0.0,0.0,0.02,0.0,0.0,2,Lying,4
2019-01-20,16:27:38,2.4599998,3.22,-9.2,0.0,0.0,0.0,0.0,0.0,0.0,2,Lying,4
2019-01-20,16:27:38,2.23,3.35,-8.98,0.0,0.0,0.0,0.0,0.0,0.0,2,Lying,4
2019-01-20,16:27:38,2.23,3.35,-8.98,0.0,0.01,0.0,0.0,0.01,0.0,2,Lying,4
2019-01-20,16:27:38,2.1699998,3.27,-9.07,0.0,0.01,0.0,0.0,0.01,0.0,2,Lying,4
2019-01-20,16:27:38,2.1699998,3.27,-9.07,-0.01,0.03,0.0,-0.01,0.03,0.0,2,Lying,4
2019-01-20,16:27:38,2.4499998,3.2,-8.96,-0.01,0.03,0.0,-0.01,0.03,0.0,2,Lying,4
2019-01-20,16:27:38,2.4499998,3.2,-8.96,-0.02,0.0,0.02,-0.02,0.0,0.02,2,Lying,4
2019-01-20,16:27:38,2.32,3.3,-9.06,-0.02,0.0,0.02,-0.02,0.0,0.02,2,Lying,4
2019-01-20,16:27:38,2.32,3.3,-9.06,0.0,0.01,0.01,0.0,0.01,0.01,2,Lying,4
2019-01-20,16:27:38,2.1599998,3.27,-8.7,0.0,0.01,0.01,0.0,0.01,0.01,2,Lying,4
2019-01-20,16:27:38,2.1599998,3.27,-8.7,0.0,-0.04,0.0,0.0,-0.04,0.0,2,Lying,4
2019-01-20,16:27:38,2.35,3.29,-9.16,0.0,-0.04,0.0,0.0,-0.04,0.0,2,Lying,4
2019-01-20,16:27:38,2.35,3.29,-9.16,0.0,0.03,-0.02,0.0,0.03,-0.02,2,Lying,4
2019-01-20,16:27:38,2.32,3.29,-8.93,0.0,0.03,-0.02,0.0,0.03,-0.02,2,Lying,4
2019-01-20,16:27:38,2.32,3.29,-8.93,0.0,-0.07,-0.02,0.0,-0.07,-0.02,2,Lying,4
2019-01-20,16:27:38,2.34,3.29,-9.11,0.0,-0.07,-0.02,0.0,-0.07,-0.02,2,Lying,4
2019-01-20,16:27:38,2.34,3.29,-9.11,-0.01,0.0,-0.01,-0.01,0.0,-0.01,2,Lying,4
2019-01-20,16:27:38,2.25,3.1899998,-9.22,-0.01,0.0,-0.01,-0.01,0.0,-0.01,2,Lying,4
2019-01-20,16:27:38,2.25,3.1899998,-9.22,-0.01,0.0,0.0,-0.01,0.0,0.0,2,Lying,4
2019-01-20,16:27:38,2.1499999,3.24,-9.21,-0.01,0.0,0.0,-0.01,0.0,0.0,2,Lying,4
2019-01-20,16:27:38,2.1499999,3.24,-9.21,0.01,0.03,0.0,0.01,0.03,0.0,2,Lying,4
2019-01-20,16:27:38,2.35,3.3799998999999996,-8.95,0.01,0.03,0.0,0.01,0.03,0.0,2,Lying,4
2019-01-20,16:27:38,2.35,3.3799998999999996,-8.95,0.01,-0.02,0.01,0.01,-0.02,0.01,2,Lying,4
2019-01-20,16:27:38,2.52,3.4399998,-8.94,0.01,-0.02,0.01,0.01,-0.02,0.01,2,Lying,4
2019-01-20,16:27:38,2.52,3.4399998,-8.94,-0.01,-0.01,0.01,-0.01,-0.01,0.01,2,Lying,4
2019-01-20,16:27:38,2.61,3.34,-8.97,-0.01,-0.01,0.01,-0.01,-0.01,0.01,2,Lying,4
2019-01-20,16:27:38,2.61,3.34,-8.97,-0.06,0.03,0.0,-0.06,0.03,0.0,2,Lying,4
2019-01-20,16:27:39,2.35,3.1699998,-8.97,-0.06,0.03,0.0,-0.06,0.03,0.0,2,Lying,4
2019-01-20,16:27:39,2.35,3.1699998,-8.97,-0.06,0.01,-0.03,-0.06,0.01,-0.03,2,Lying,4
2019-01-20,16:27:39,2.11,3.3799998999999996,-8.95,-0.06,0.01,-0.03,-0.06,0.01,-0.03,2,Lying,4
2019-01-20,16:27:39,2.11,3.3799998999999996,-8.95,-0.01,-0.01,-0.03,-0.01,-0.01,-0.03,2,Lying,4
2019-01-20,16:27:39,1.89,3.3799998999999996,-8.92,-0.01,-0.01,-0.03,-0.01,-0.01,-0.03,2,Lying,4
2019-01-20,16:27:39,1.89,3.3799998999999996,-8.92,0.06,0.0,0.0,0.06,0.0,0.0,2,Lying,4
2019-01-20,16:27:39,2.34,3.3799998999999996,-9.07,0.06,0.0,0.0,0.06,0.0,0.0,2,Lying,4
2019-01-20,16:27:39,2.34,3.3799998999999996,-9.07,0.06,-0.06,0.04,0.06,-0.06,0.04,2,Lying,4
2019-01-20,16:27:39,2.6499999,3.4399998,-9.36,0.06,-0.06,0.04,0.06,-0.06,0.04,2,Lying,4
2019-01-20,16:27:39,2.6499999,3.4399998,-9.36,0.03,0.089999996,0.049999997000000004,0.03,0.089999996,0.049999997000000004,2,Lying,4
2019-01-20,16:27:39,2.57,3.29,-9.28,0.03,0.089999996,0.049999997000000004,0.03,0.089999996,0.049999997000000004,2,Lying,4
2019-01-20,16:27:39,2.57,3.29,-9.28,0.049999997000000004,0.01,0.02,0.049999997000000004,0.01,0.02,2,Lying,4
2019-01-20,16:27:39,2.56,3.2,-9.3,0.049999997000000004,0.01,0.02,0.049999997000000004,0.01,0.02,2,Lying,4
2019-01-20,16:27:39,2.56,3.2,-9.3,0.0,-0.089999996,-0.03,0.0,-0.089999996,-0.03,2,Lying,4
2019-01-20,16:27:39,2.34,3.37,-9.2,0.0,-0.089999996,-0.03,0.0,-0.089999996,-0.03,2,Lying,4
2019-01-20,16:27:39,2.34,3.37,-9.2,-0.06,0.03,-0.049999997000000004,-0.06,0.03,-0.049999997000000004,2,Lying,4
2019-01-20,16:27:39,2.02,3.31,-8.88,-0.06,0.03,-0.049999997000000004,-0.06,0.03,-0.049999997000000004,2,Lying,4
2019-01-20,16:27:39,2.02,3.31,-8.88,-0.049999997000000004,0.049999997000000004,-0.03,-0.049999997000000004,0.049999997000000004,-0.03,2,Lying,4
2019-01-20,16:27:39,2.37,3.34,-8.88,-0.049999997000000004,0.049999997000000004,-0.03,-0.049999997000000004,0.049999997000000004,-0.03,2,Lying,4
2019-01-20,16:27:39,2.37,3.34,-8.88,-0.02,0.0,0.02,-0.02,0.0,0.02,2,Lying,4
2019-01-20,16:27:39,2.34,3.4099998,-8.88,-0.02,0.0,0.02,-0.02,0.0,0.02,2,Lying,4
2019-01-20,16:27:39,2.34,3.4099998,-8.88,0.04,0.0,0.01,0.04,0.0,0.01,2,Lying,4
2019-01-20,16:27:39,2.37,3.33,-8.96,0.04,0.0,0.01,0.04,0.0,0.01,2,Lying,4
2019-01-20,16:27:39,2.37,3.33,-8.96,0.04,-0.01,0.02,0.04,-0.01,0.02,2,Lying,4
2019-01-20,16:27:39,2.4299998,3.1499999,-9.09,0.04,-0.01,0.02,0.04,-0.01,0.02,2,Lying,4
2019-01-20,16:27:39,2.4299998,3.1499999,-9.09,0.049999997000000004,-0.02,0.01,0.049999997000000004,-0.02,0.01,2,Lying,4
2019-01-20,16:27:39,2.26,3.29,-9.27,0.049999997000000004,-0.02,0.01,0.049999997000000004,-0.02,0.01,2,Lying,4
2019-01-20,16:27:39,2.26,3.29,-9.27,0.07,-0.049999997000000004,-0.01,0.07,-0.049999997000000004,-0.01,2,Lying,4
2019-01-20,16:27:39,2.1699998,3.37,-9.19,0.07,-0.049999997000000004,-0.01,0.07,-0.049999997000000004,-0.01,2,Lying,4
2019-01-20,16:27:39,2.1699998,3.37,-9.19,0.06,-0.049999997000000004,-0.01,0.06,-0.049999997000000004,-0.01,2,Lying,4
2019-01-20,16:27:39,2.3999999,3.1899998,-9.2,0.06,-0.049999997000000004,-0.01,0.06,-0.049999997000000004,-0.01,2,Lying,4
2019-01-20,16:27:39,2.3999999,3.1899998,-9.2,0.0,-0.01,0.01,0.0,-0.01,0.01,2,Lying,4
2019-01-20,16:27:39,2.48,3.22,-9.25,0.0,-0.01,0.01,0.0,-0.01,0.01,2,Lying,4
2019-01-20,16:27:39,2.48,3.22,-9.25,-0.01,0.01,0.0,-0.01,0.01,0.0,2,Lying,4
2019-01-20,16:27:39,2.28,3.2,-9.23,-0.01,0.01,0.0,-0.01,0.01,0.0,2,Lying,4
2019-01-20,16:27:39,2.28,3.2,-9.23,-0.02,0.02,-0.02,-0.02,0.02,-0.02,2,Lying,4
2019-01-20,16:27:39,2.1699998,3.21,-9.0,-0.02,0.02,-0.02,-0.02,0.02,-0.02,2,Lying,4
2019-01-20,16:27:39,2.1699998,3.21,-9.0,-0.03,0.01,-0.03,-0.03,0.01,-0.03,2,Lying,4
2019-01-20,16:27:39,2.22,3.1799998,-8.83,-0.03,0.01,-0.03,-0.03,0.01,-0.03,2,Lying,4
2019-01-20,16:27:39,2.22,3.1799998,-8.83,0.0,0.01,0.0,0.0,0.01,0.0,2,Lying,4
2019-01-20,16:27:39,2.1799998,3.1899998,-8.95,0.0,0.01,0.0,0.0,0.01,0.0,2,Lying,4
2019-01-20,16:27:39,2.1799998,3.1899998,-8.95,0.03,-0.02,0.0,0.03,-0.02,0.0,2,Lying,4
2019-01-20,16:27:39,2.1999998,3.28,-9.21,0.03,-0.02,0.0,0.03,-0.02,0.0,2,Lying,4
2019-01-20,16:27:39,2.1999998,3.28,-9.21,0.06,-0.06,0.0,0.06,-0.06,0.0,2,Lying,4
2019-01-20,16:27:39,2.1499999,3.32,-9.35,0.06,-0.06,0.0,0.06,-0.06,0.0,2,Lying,4
2019-01-20,16:27:40,2.1499999,3.32,-9.35,0.06,-0.01,0.0,0.06,-0.01,0.0,2,Lying,4
2019-01-20,16:27:40,2.4199998,3.23,-9.37,0.06,-0.01,0.0,0.06,-0.01,0.0,2,Lying,4
2019-01-20,16:27:40,2.4199998,3.23,-9.37,-0.03,0.02,0.01,-0.03,0.02,0.01,2,Lying,4
2019-01-20,16:27:40,2.33,3.1599998,-9.06,-0.03,0.02,0.01,-0.03,0.02,0.01,2,Lying,4
2019-01-20,16:27:40,2.33,3.1599998,-9.06,-0.06,0.06,0.0,-0.06,0.06,0.0,2,Lying,4
2019-01-20,16:27:40,2.1799998,3.1899998,-8.94,-0.06,0.06,0.0,-0.06,0.06,0.0,2,Lying,4
2019-01-20,16:27:40,2.1799998,3.1899998,-8.94,-0.049999997000000004,0.049999997000000004,0.01,-0.049999997000000004,0.049999997000000004,0.01,2,Lying,4
2019-01-20,16:27:40,2.25,3.21,-8.93,-0.049999997000000004,0.049999997000000004,0.01,-0.049999997000000004,0.049999997000000004,0.01,2,Lying,4
2019-01-20,16:27:40,2.25,3.21,-8.93,-0.03,0.0,0.01,-0.03,0.0,0.01,2,Lying,4
2019-01-20,16:27:40,2.37,3.1799998,-8.98,-0.03,0.0,0.01,-0.03,0.0,0.01,2,Lying,4
2019-01-20,16:27:40,2.37,3.1799998,-8.98,0.0,0.0,0.01,0.0,0.0,0.01,2,Lying,4
2019-01-20,16:27:40,2.31,3.21,-9.22,0.0,0.0,0.01,0.0,0.0,0.01,2,Lying,4
2019-01-20,16:27:40,2.31,3.21,-9.22,0.04,-0.02,0.0,0.04,-0.02,0.0,2,Lying,4
2019-01-20,16:27:40,2.24,3.28,-9.24,0.04,-0.02,0.0,0.04,-0.02,0.0,2,Lying,4
2019-01-20,16:27:40,2.24,3.28,-9.24,0.03,-0.02,0.0,0.03,-0.02,0.0,2,Lying,4
2019-01-20,16:27:40,2.26,3.32,-9.28,0.03,-0.02,0.0,0.03,-0.02,0.0,2,Lying,4
2019-01-20,16:27:40,2.26,3.32,-9.28,0.0,0.0,0.0,0.0,0.0,0.0,2,Lying,4
2019-01-20,16:27:40,2.34,3.26,-9.27,0.0,0.0,0.0,0.0,0.0,0.0,2,Lying,4
2019-01-20,16:27:40,2.34,3.26,-9.27,-0.03,0.01,0.0,-0.03,0.01,0.0,2,Lying,4
2019-01-20,16:27:40,2.25,3.24,-9.08,-0.03,0.01,0.0,-0.03,0.01,0.0,2,Lying,4
2019-01-20,16:27:40,2.25,3.24,-9.08,-0.049999997000000004,0.03,0.0,-0.049999997000000004,0.03,0.0,2,Lying,4
2019-01-20,16:27:40,2.1799998,3.21,-8.97,-0.049999997000000004,0.03,0.0,-0.049999997000000004,0.03,0.0,2,Lying,4
2019-01-20,16:27:40,2.1799998,3.21,-8.97,-0.03,0.04,0.0,-0.03,0.04,0.0,2,Lying,4
2019-01-20,16:27:40,2.09,3.23,-8.98,-0.03,0.04,0.0,-0.03,0.04,0.0,2,Lying,4
2019-01-20,16:27:40,2.09,3.23,-8.98,0.0,0.01,0.01,0.0,0.01,0.01,2,Lying,4
2019-01-20,16:27:40,2.22,3.23,-9.06,0.0,0.01,0.01,0.0,0.01,0.01,2,Lying,4
2019-01-20,16:27:40,2.22,3.23,-9.06,0.04,-0.01,0.03,0.04,-0.01,0.03,2,Lying,4
2019-01-20,16:27:40,2.3,3.1899998,-9.09,0.04,-0.01,0.03,0.04,-0.01,0.03,2,Lying,4
2019-01-20,16:27:40,2.3,3.1899998,-9.09,0.049999997000000004,0.03,0.03,0.049999997000000004,0.03,0.03,2,Lying,4
2019-01-20,16:27:40,2.37,3.1799998,-8.97,0.049999997000000004,0.03,0.03,0.049999997000000004,0.03,0.03,2,Lying,4
2019-01-20,16:27:40,2.37,3.1799998,-8.97,0.02,-0.03,0.03,0.02,-0.03,0.03,2,Lying,4
2019-01-20,16:27:40,2.36,3.24,-9.23,0.02,-0.03,0.03,0.02,-0.03,0.03,2,Lying,4
2019-01-20,16:27:40,2.36,3.24,-9.23,-0.02,0.03,0.03,-0.02,0.03,0.03,2,Lying,4
2019-01-20,16:27:40,2.55,3.24,-9.13,-0.02,0.03,0.03,-0.02,0.03,0.03,2,Lying,4
2019-01-20,16:27:40,2.55,3.24,-9.13,-0.04,0.02,0.03,-0.04,0.02,0.03,2,Lying,4
2019-01-20,16:27:40,2.3999999,3.1899998,-8.99,-0.04,0.02,0.03,-0.04,0.02,0.03,2,Lying,4
2019-01-20,16:27:40,2.3999999,3.1899998,-8.99,-0.04,0.049999997000000004,0.0,-0.04,0.049999997000000004,0.0,2,Lying,4
2019-01-20,16:27:40,2.22,3.27,-9.0,-0.04,0.049999997000000004,0.0,-0.04,0.049999997000000004,0.0,2,Lying,4
2019-01-20,16:27:40,2.22,3.27,-9.0,0.0,0.03,-0.02,0.0,0.03,-0.02,2,Lying,4
2019-01-20,16:27:40,2.3899999,3.23,-8.96,0.0,0.03,-0.02,0.0,0.03,-0.02,2,Lying,4
2019-01-20,16:27:40,2.3899999,3.23,-8.96,0.0,-0.04,0.0,0.0,-0.04,0.0,2,Lying,4
2019-01-20,16:27:40,2.37,3.27,-8.94,0.0,-0.04,0.0,0.0,-0.04,0.0,2,Lying,4
2019-01-20,16:27:40,2.37,3.27,-8.94,0.01,-0.03,0.0,0.01,-0.03,0.0,2,Lying,4
2019-01-20,16:27:40,2.26,3.2,-9.1,0.01,-0.03,0.0,0.01,-0.03,0.0,2,Lying,4
2019-01-20,16:27:40,2.26,3.2,-9.1,0.03,0.0,0.0,0.03,0.0,0.0,2,Lying,4
2019-01-20,16:27:40,2.52,3.1299999,-9.09,0.03,0.0,0.0,0.03,0.0,0.0,2,Lying,4
2019-01-20,16:27:40,2.52,3.1299999,-9.09,0.02,-0.08,0.0,0.02,-0.08,0.0,2,Lying,4
2019-01-20,16:27:40,2.24,3.22,-9.12,0.02,-0.08,0.0,0.02,-0.08,0.0,2,Lying,4
2019-01-20,16:27:41,2.24,3.22,-9.12,0.04,-0.01,-0.02,0.04,-0.01,-0.02,2,Lying,4
2019-01-20,16:27:41,2.23,3.23,-9.1,0.04,-0.01,-0.02,0.04,-0.01,-0.02,2,Lying,4
2019-01-20,16:27:41,2.23,3.23,-9.1,0.03,-0.03,-0.02,0.03,-0.03,-0.02,2,Lying,4
2019-01-20,16:27:41,2.1499999,3.24,-9.38,0.03,-0.03,-0.02,0.03,-0.03,-0.02,2,Lying,4
2019-01-20,16:27:41,2.1499999,3.24,-9.38,0.01,0.01,0.0,0.01,0.01,0.0,2,Lying,4
2019-01-20,16:27:41,2.29,3.21,-9.32,0.01,0.01,0.0,0.01,0.01,0.0,2,Lying,4
2019-01-20,16:27:41,2.29,3.21,-9.32,0.01,-0.02,0.0,0.01,-0.02,0.0,2,Lying,4
2019-01-20,16:27:41,2.32,3.22,-9.22,0.01,-0.02,0.0,0.01,-0.02,0.0,2,Lying,4
2019-01-20,16:27:41,2.32,3.22,-9.22,-0.02,0.01,0.0,-0.02,0.01,0.0,2,Lying,4
2019-01-20,16:27:41,2.22,3.1599998,-9.2,-0.02,0.01,0.0,-0.02,0.01,0.0,2,Lying,4
2019-01-20,16:27:41,2.22,3.1599998,-9.2,-0.06,0.03,0.0,-0.06,0.03,0.0,2,Lying,4
2019-01-20,16:27:41,2.31,3.29,-9.11,-0.06,0.03,0.0,-0.06,0.03,0.0,2,Lying,4
2019-01-20,16:27:41,2.31,3.29,-9.11,-0.07,0.02,0.0,-0.07,0.02,0.0,2,Lying,4
2019-01-20,16:27:41,2.22,3.28,-9.06,-0.07,0.02,0.0,-0.07,0.02,0.0,2,Lying,4
2019-01-20,16:27:41,2.22,3.28,-9.06,-0.06,0.01,-0.01,-0.06,0.01,-0.01,2,Lying,4
2019-01-20,16:27:41,2.3,3.1599998,-8.91,-0.06,0.01,-0.01,-0.06,0.01,-0.01,2,Lying,4
2019-01-20,16:27:41,2.3,3.1599998,-8.91,-0.03,0.01,0.0,-0.03,0.01,0.0,2,Lying,4
2019-01-20,16:27:41,2.33,3.4099998,-8.96,-0.03,0.01,0.0,-0.03,0.01,0.0,2,Lying,4
2019-01-20,16:27:41,2.33,3.4099998,-8.96,0.0,0.01,0.0,0.0,0.01,0.0,2,Lying,4
2019-01-20,16:27:41,2.4299998,3.35,-9.01,0.0,0.01,0.0,0.0,0.01,0.0,2,Lying,4
2019-01-20,16:27:41,2.4299998,3.35,-9.01,-0.02,0.01,0.0,-0.02,0.01,0.0,2,Lying,4
2019-01-20,16:27:41,2.31,3.3,-9.02,-0.02,0.01,0.0,-0.02,0.01,0.0,2,Lying,4
2019-01-20,16:27:41,2.31,3.3,-9.02,-0.02,0.02,0.0,-0.02,0.02,0.0,2,Lying,4
2019-01-20,16:27:41,2.4399998,3.11,-9.12,-0.02,0.02,0.0,-0.02,0.02,0.0,2,Lying,4
2019-01-20,16:27:41,2.4399998,3.11,-9.12,-0.02,-0.01,0.0,-0.02,-0.01,0.0,2,Lying,4
2019-01-20,16:27:41,1.91,3.28,-8.61,-0.02,-0.01,0.0,-0.02,-0.01,0.0,2,Lying,4
2019-01-20,16:27:41,1.91,3.28,-8.61,0.06,-0.06,-0.04,0.06,-0.06,-0.04,2,Lying,4
2019-01-20,16:27:41,2.01,3.29,-9.2,0.06,-0.06,-0.04,0.06,-0.06,-0.04,2,Lying,4
2019-01-20,16:27:41,2.01,3.29,-9.2,0.049999997000000004,0.06,0.01,0.049999997000000004,0.06,0.01,2,Lying,4
2019-01-20,16:27:41,2.55,3.28,-9.31,0.049999997000000004,-0.11,0.04,0.049999997000000004,-0.11,0.04,2,Lying,4
2019-01-20,16:27:41,2.55,3.28,-9.31,0.049999997000000004,-0.11,0.04,0.049999997000000004,-0.11,0.04,2,Lying,4
2019-01-20,16:27:41,2.27,3.26,-9.28,0.049999997000000004,-0.11,0.04,0.049999997000000004,-0.11,0.04,2,Lying,4
2019-01-20,16:27:41,2.27,3.26,-9.28,0.01,0.0,-0.01,0.01,0.0,-0.01,2,Lying,4
2019-01-20,16:27:41,2.21,3.1799998,-9.13,0.01,0.0,-0.01,0.01,0.0,-0.01,2,Lying,4
2019-01-20,16:27:41,2.21,3.1799998,-9.13,-0.03,0.04,-0.01,-0.03,0.04,-0.01,2,Lying,4
2019-01-20,16:27:41,2.05,3.28,-9.01,-0.03,0.04,-0.01,-0.03,0.04,-0.01,2,Lying,4
2019-01-20,16:27:41,2.05,3.28,-9.01,0.0,0.089999996,-0.02,0.0,0.089999996,-0.02,2,Lying,4
2019-01-20,16:27:41,2.07,3.35,-9.15,0.0,0.089999996,-0.02,0.0,0.089999996,-0.02,2,Lying,4
2019-01-20,16:27:41,2.07,3.35,-9.15,-0.02,0.049999997000000004,0.0,-0.02,0.049999997000000004,0.0,2,Lying,4
2019-01-20,16:27:41,2.58,3.22,-9.12,-0.02,0.049999997000000004,0.0,-0.02,0.049999997000000004,0.0,2,Lying,4
2019-01-20,16:27:41,2.58,3.22,-9.12,-0.08,0.0,0.04,-0.08,0.0,0.04,2,Lying,4
2019-01-20,16:27:41,2.3899999,3.29,-8.92,-0.08,0.0,0.04,-0.08,0.0,0.04,2,Lying,4
2019-01-20,16:27:41,2.3899999,3.29,-8.92,0.0,0.02,-0.03,0.0,0.02,-0.03,2,Lying,4
2019-01-20,16:27:42,1.89,3.3999998999999996,-8.97,0.0,0.02,-0.03,0.0,0.02,-0.03,2,Lying,4
2019-01-20,16:27:42,1.89,3.3999998999999996,-8.97,0.02,0.01,0.0,0.02,0.01,0.0,2,Lying,4
2019-01-20,16:27:42,2.75,3.26,-9.12,0.02,0.01,0.0,0.02,0.01,0.0,2,Lying,4
2019-01-20,16:27:42,2.75,3.26,-9.12,-0.01,-0.03,0.06,-0.01,-0.03,0.06,2,Lying,4
2019-01-20,16:27:42,2.87,3.36,-8.99,-0.01,-0.03,0.06,-0.01,-0.03,0.06,2,Lying,4
2019-01-20,16:27:42,2.87,3.36,-8.99,0.01,0.01,0.0,0.01,0.01,0.0,2,Lying,4
2019-01-20,16:27:42,2.07,3.32,-9.08,0.02,0.049999997000000004,-0.04,0.02,0.049999997000000004,-0.04,2,Lying,4
2019-01-20,16:27:42,2.07,3.32,-9.08,0.02,0.049999997000000004,-0.04,0.02,0.049999997000000004,-0.04,2,Lying,4
2019-01-20,16:27:42,2.01,3.1699998,-9.06,0.02,0.049999997000000004,-0.04,0.02,0.049999997000000004,-0.04,2,Lying,4
2019-01-20,16:27:42,2.01,3.1699998,-9.06,0.0,0.0,-0.04,0.0,0.0,-0.04,2,Lying,4
2019-01-20,16:27:42,2.11,3.1499999,-8.89,0.0,0.0,-0.04,0.0,0.0,-0.04,2,Lying,4
2019-01-20,16:27:42,2.11,3.1499999,-8.89,0.03,-0.03,-0.01,0.03,-0.03,-0.01,2,Lying,4
2019-01-20,16:27:42,2.3,3.31,-9.06,0.03,-0.03,-0.01,0.03,-0.03,-0.01,2,Lying,4
2019-01-20,16:27:42,2.3,3.31,-9.06,0.09999999400000001,-0.049999997000000004,0.02,0.09999999400000001,-0.049999997000000004,0.02,2,Lying,4
2019-01-20,16:27:42,2.27,3.22,-9.43,0.09999999400000001,-0.049999997000000004,0.02,0.09999999400000001,-0.049999997000000004,0.02,2,Lying,4
2019-01-20,16:27:42,2.27,3.22,-9.43,0.07,-0.04,0.03,0.07,-0.04,0.03,2,Lying,4
2019-01-20,16:27:42,2.4499998,3.31,-9.53,0.07,-0.04,0.03,0.07,-0.04,0.03,2,Lying,4
2019-01-20,16:27:42,2.4499998,3.31,-9.53,0.03,0.0,0.02,0.03,0.0,0.02,2,Lying,4
2019-01-20,16:27:42,2.49,3.1799998,-9.26,0.03,0.0,0.02,0.03,0.0,0.02,2,Lying,4
2019-01-20,16:27:42,2.49,3.1799998,-9.26,-0.03,0.02,0.0,-0.03,0.02,0.0,2,Lying,4
2019-01-20,16:27:42,2.1899998,3.25,-9.0,-0.03,0.02,0.0,-0.03,0.02,0.0,2,Lying,4
2019-01-20,16:27:42,2.1899998,3.25,-9.0,-0.08,0.06,-0.03,-0.08,0.06,-0.03,2,Lying,4
2019-01-20,16:27:42,2.08,3.22,-8.97,-0.08,0.06,-0.03,-0.08,0.06,-0.03,2,Lying,4
2019-01-20,16:27:42,2.08,3.22,-8.97,-0.06,0.08,-0.01,-0.06,0.08,-0.01,2,Lying,4
2019-01-20,16:27:42,2.4299998,3.1699998,-8.92,-0.06,0.08,-0.01,-0.06,0.08,-0.01,2,Lying,4
2019-01-20,16:27:42,2.4299998,3.1699998,-8.92,-0.01,0.02,0.02,-0.01,0.02,0.02,2,Lying,4
2019-01-20,16:27:42,2.48,3.1899998,-8.98,-0.01,0.02,0.02,-0.01,0.02,0.02,2,Lying,4
2019-01-20,16:27:42,2.48,3.1899998,-8.98,0.0,0.01,0.03,0.0,0.01,0.03,2,Lying,4
2019-01-20,16:27:42,2.3999999,3.26,-9.0,0.0,0.01,0.03,0.0,0.01,0.03,2,Lying,4
2019-01-20,16:27:42,2.3999999,3.26,-9.0,0.01,0.0,0.01,0.01,0.0,0.01,2,Lying,4
2019-01-20,16:27:42,2.36,3.23,-9.07,0.01,0.0,0.01,0.01,0.0,0.01,2,Lying,4
2019-01-20,16:27:42,2.36,3.23,-9.07,0.04,-0.01,0.0,0.04,-0.01,0.0,2,Lying,4
2019-01-20,16:27:42,2.3799999,3.23,-9.23,0.04,-0.01,0.0,0.04,-0.01,0.0,2,Lying,4
2019-01-20,16:27:42,2.3799999,3.23,-9.23,0.03,0.0,0.0,0.03,0.0,0.0,2,Lying,4
2019-01-20,16:27:42,2.4299998,3.1599998,-9.2,0.03,0.0,0.0,0.03,0.0,0.0,2,Lying,4
2019-01-20,16:27:42,2.4299998,3.1599998,-9.2,0.0,0.0,0.0,0.0,0.0,0.0,2,Lying,4
2019-01-20,16:27:42,2.35,3.28,-9.04,0.0,0.0,0.0,0.0,0.0,0.0,2,Lying,4
2019-01-20,16:27:42,2.35,3.28,-9.04,-0.02,0.0,0.0,-0.02,0.0,0.0,2,Lying,4
2019-01-20,16:27:42,2.23,3.22,-9.0,-0.02,0.0,0.0,-0.02,0.0,0.0,2,Lying,4
2019-01-20,16:27:42,2.23,3.22,-9.0,-0.02,0.03,0.0,-0.02,0.03,0.0,2,Lying,4
2019-01-20,16:27:42,2.24,3.29,-9.06,-0.02,0.03,0.0,-0.02,0.03,0.0,2,Lying,4
2019-01-20,16:27:42,2.24,3.29,-9.06,-0.01,0.01,0.01,-0.01,0.01,0.01,2,Lying,4
2019-01-20,16:27:42,2.3999999,3.1799998,-9.08,-0.01,0.01,0.01,-0.01,0.01,0.01,2,Lying,4
2019-01-20,16:27:42,2.3999999,3.1799998,-9.08,0.0,0.0,0.0,0.0,0.0,0.0,2,Lying,4
2019-01-20,16:27:42,2.34,3.02,-9.08,0.0,0.0,0.0,0.0,0.0,0.0,2,Lying,4
2019-01-20,16:27:42,2.34,3.02,-9.08,0.0,0.0,0.01,0.0,0.0,0.01,2,Lying,4
2019-01-20,16:27:42,2.4499998,3.35,-8.99,0.0,0.0,0.01,0.0,0.0,0.01,2,Lying,4
2019-01-20,16:27:43,2.4499998,3.35,-8.99,0.01,0.0,0.01,0.01,0.0,0.01,2,Lying,4
2019-01-20,16:27:43,2.33,3.34,-9.16,0.01,0.0,0.01,0.01,0.0,0.01,2,Lying,4
2019-01-20,16:27:43,2.33,3.34,-9.16,0.02,0.01,0.0,0.02,0.01,0.0,2,Lying,4
2019-01-20,16:27:43,2.6599998,3.1,-9.28,0.02,0.01,0.0,0.02,0.01,0.0,2,Lying,4
2019-01-20,16:27:43,2.6599998,3.1,-9.28,0.0,0.0,0.0,0.0,0.0,0.0,2,Lying,4
2019-01-20,16:27:43,2.3,3.3,-9.06,0.0,0.0,0.0,0.0,0.0,0.0,2,Lying,4
2019-01-20,16:27:43,2.3,3.3,-9.06,0.0,0.06,-0.06,0.0,0.06,-0.06,2,Lying,4
2019-01-20,16:27:43,2.21,3.32,-8.98,0.0,0.06,-0.06,0.0,0.06,-0.06,2,Lying,4
2019-01-20,16:27:43,2.21,3.32,-8.98,-0.049999997000000004,0.04,-0.02,-0.049999997000000004,0.04,-0.02,2,Lying,4
2019-01-20,16:27:43,2.3,3.24,-8.98,-0.049999997000000004,0.04,-0.02,-0.049999997000000004,0.04,-0.02,2,Lying,4
2019-01-20,16:27:43,2.3,3.24,-8.98,-0.049999997000000004,0.049999997000000004,0.01,-0.049999997000000004,0.049999997000000004,0.01,2,Lying,4
2019-01-20,16:27:43,2.55,3.2,-8.92,-0.049999997000000004,0.049999997000000004,0.01,-0.049999997000000004,0.049999997000000004,0.01,2,Lying,4
2019-01-20,16:27:43,2.55,3.2,-8.92,-0.04,0.0,0.03,-0.04,0.0,0.03,2,Lying,4
2019-01-20,16:27:43,2.07,3.29,-8.99,-0.04,0.0,0.03,-0.04,0.0,0.03,2,Lying,4
2019-01-20,16:27:43,2.07,3.29,-8.99,0.049999997000000004,-0.02,0.01,0.049999997000000004,-0.02,0.01,2,Lying,4
2019-01-20,16:27:43,2.4199998,3.36,-9.02,0.049999997000000004,-0.02,0.01,0.049999997000000004,-0.02,0.01,2,Lying,4
2019-01-20,16:27:43,2.4199998,3.36,-9.02,0.06,-0.03,0.049999997000000004,0.06,-0.03,0.049999997000000004,2,Lying,4
2019-01-20,16:27:43,2.75,3.1299999,-9.47,0.06,-0.03,0.049999997000000004,0.06,-0.03,0.049999997000000004,2,Lying,4
2019-01-20,16:27:43,2.75,3.1299999,-9.47,0.08,-0.03,0.03,0.08,-0.03,0.03,2,Lying,4
2019-01-20,16:27:43,2.6699998,3.33,-9.3,0.08,-0.03,0.03,0.08,-0.03,0.03,2,Lying,4
2019-01-20,16:27:43,2.6699998,3.33,-9.3,0.03,-0.03,-0.02,0.03,-0.03,-0.02,2,Lying,4
2019-01-20,16:27:43,2.23,3.34,-9.18,0.03,-0.03,-0.02,0.03,-0.03,-0.02,2,Lying,4
2019-01-20,16:27:43,2.23,3.34,-9.18,-0.03,0.03,-0.07,-0.03,0.03,-0.07,2,Lying,4
2019-01-20,16:27:43,2.29,3.12,-9.08,-0.03,0.03,-0.07,-0.03,0.03,-0.07,2,Lying,4
2019-01-20,16:27:43,2.29,3.12,-9.08,-0.07,0.03,-0.04,-0.07,0.03,-0.04,2,Lying,4
2019-01-20,16:27:43,2.4599998,3.21,-9.04,-0.07,0.03,-0.04,-0.07,0.03,-0.04,2,Lying,4
2019-01-20,16:27:43,2.4599998,3.21,-9.04,-0.06,0.0,0.0,-0.06,0.0,0.0,2,Lying,4
2019-01-20,16:27:43,2.1699998,3.24,-8.99,-0.06,0.0,0.0,-0.06,0.0,0.0,2,Lying,4
2019-01-20,16:27:43,2.1699998,3.24,-8.99,0.01,0.0,-0.01,0.01,0.0,-0.01,2,Lying,4
2019-01-20,16:27:43,2.35,3.1799998,-9.04,0.01,0.0,-0.01,0.01,0.0,-0.01,2,Lying,4
2019-01-20,16:27:43,2.35,3.1799998,-9.04,0.049999997000000004,-0.03,0.04,0.049999997000000004,-0.03,0.04,2,Lying,4
2019-01-20,16:27:43,2.72,3.23,-9.2,0.049999997000000004,-0.03,0.04,0.049999997000000004,-0.03,0.04,2,Lying,4
2019-01-20,16:27:43,2.72,3.23,-9.2,0.049999997000000004,-0.04,0.04,0.049999997000000004,-0.04,0.04,2,Lying,4
2019-01-20,16:27:43,2.6499999,3.35,-9.32,0.049999997000000004,-0.04,0.04,0.049999997000000004,-0.04,0.04,2,Lying,4
2019-01-20,16:27:43,2.6499999,3.35,-9.32,0.04,0.01,0.0,0.04,0.01,0.0,2,Lying,4
2019-01-20,16:27:43,2.29,3.12,-9.06,0.0,0.0,-0.02,0.0,0.0,-0.02,2,Lying,4
2019-01-20,16:27:43,2.29,3.12,-9.06,0.0,0.0,-0.02,0.0,0.0,-0.02,2,Lying,4
2019-01-20,16:27:43,2.1299999,3.02,-9.15,0.0,0.0,-0.02,0.0,0.0,-0.02,2,Lying,4
2019-01-20,16:27:43,2.1299999,3.02,-9.15,-0.01,0.11,-0.01,-0.01,0.11,-0.01,2,Lying,4
2019-01-20,16:27:43,2.34,3.1699998,-8.9,-0.01,0.11,-0.01,-0.01,0.11,-0.01,2,Lying,4
2019-01-20,16:27:43,2.34,3.1699998,-8.9,0.04,-0.07,0.0,0.04,-0.07,0.0,2,Lying,4
2019-01-20,16:27:43,2.3899999,3.21,-9.19,0.04,-0.07,0.0,0.04,-0.07,0.0,2,Lying,4
2019-01-20,16:27:43,2.3899999,3.21,-9.19,0.07,-0.03,0.0,0.07,-0.03,0.0,2,Lying,4
2019-01-20,16:27:44,2.29,3.1399999,-9.4,0.07,-0.03,0.0,0.07,-0.03,0.0,2,Lying,4
2019-01-20,16:27:44,2.29,3.1399999,-9.4,0.06,-0.02,0.0,0.06,-0.02,0.0,2,Lying,4
2019-01-20,16:27:44,2.3799999,3.1399999,-9.44,0.06,-0.02,0.0,0.06,-0.02,0.0,2,Lying,4
2019-01-20,16:27:44,2.3799999,3.1399999,-9.44,0.01,0.0,-0.01,0.01,0.0,-0.01,2,Lying,4
2019-01-20,16:27:44,2.51,3.21,-9.35,0.01,0.0,-0.01,0.01,0.0,-0.01,2,Lying,4
2019-01-20,16:27:44,2.51,3.21,-9.35,-0.04,0.03,0.0,-0.04,0.03,0.0,2,Lying,4
2019-01-20,16:27:44,2.32,3.22,-9.18,-0.04,0.03,0.0,-0.04,0.03,0.0,2,Lying,4
2019-01-20,16:27:44,2.32,3.22,-9.18,-0.08,0.049999997000000004,-0.02,-0.08,0.049999997000000004,-0.02,2,Lying,4
2019-01-20,16:27:44,2.22,3.1299999,-8.9,-0.08,0.049999997000000004,-0.02,-0.08,0.049999997000000004,-0.02,2,Lying,4
2019-01-20,16:27:44,2.22,3.1299999,-8.9,-0.089999996,0.07,-0.02,-0.089999996,0.07,-0.02,2,Lying,4
2019-01-20,16:27:44,2.22,3.23,-8.8,-0.089999996,0.07,-0.02,-0.089999996,0.07,-0.02,2,Lying,4
2019-01-20,16:27:44,2.22,3.23,-8.8,-0.04,0.01,0.0,-0.04,0.01,0.0,2,Lying,4
2019-01-20,16:27:44,2.3,3.24,-8.91,-0.04,0.01,0.0,-0.04,0.01,0.0,2,Lying,4
2019-01-20,16:27:44,2.3,3.24,-8.91,0.01,0.0,0.03,0.01,0.0,0.03,2,Lying,4
2019-01-20,16:27:44,2.57,3.24,-9.1,0.01,0.0,0.03,0.01,0.0,0.03,2,Lying,4
2019-01-20,16:27:44,2.57,3.24,-9.1,0.03,0.0,0.03,0.03,0.0,0.03,2,Lying,4
2019-01-20,16:27:44,2.6699998,3.1699998,-9.2,0.03,0.0,0.03,0.03,0.0,0.03,2,Lying,4
2019-01-20,16:27:44,2.6699998,3.1699998,-9.2,0.0,0.0,0.01,0.0,0.0,0.01,2,Lying,4
2019-01-20,16:27:44,2.51,3.29,-9.09,0.0,0.0,0.01,0.0,0.0,0.01,2,Lying,4
2019-01-20,16:27:44,2.51,3.29,-9.09,-0.01,0.01,-0.02,-0.01,0.01,-0.02,2,Lying,4
2019-01-20,16:27:44,2.36,3.1699998,-9.0,-0.01,0.01,-0.02,-0.01,0.01,-0.02,2,Lying,4
2019-01-20,16:27:44,2.36,3.1699998,-9.0,0.0,0.0,-0.03,0.0,0.0,-0.03,2,Lying,4
2019-01-20,16:27:44,2.29,3.1799998,-8.97,0.0,0.0,-0.03,0.0,0.0,-0.03,2,Lying,4
2019-01-20,16:27:44,2.29,3.1799998,-8.97,0.0,-0.02,-0.02,0.0,-0.02,-0.02,2,Lying,4
2019-01-20,16:27:44,2.29,3.22,-8.93,0.0,-0.02,-0.02,0.0,-0.02,-0.02,2,Lying,4
2019-01-20,16:27:44,2.29,3.22,-8.93,0.02,-0.03,-0.01,0.02,-0.03,-0.01,2,Lying,4
2019-01-20,16:27:44,2.33,3.2,-9.23,0.02,-0.03,-0.01,0.02,-0.03,-0.01,2,Lying,4
2019-01-20,16:27:44,2.33,3.2,-9.23,0.03,-0.02,0.0,0.03,-0.02,0.0,2,Lying,4
2019-01-20,16:27:44,2.48,3.1699998,-9.33,0.03,-0.02,0.0,0.03,-0.02,0.0,2,Lying,4
2019-01-20,16:27:44,2.48,3.1699998,-9.33,0.03,-0.03,0.01,0.03,-0.03,0.01,2,Lying,4
2019-01-20,16:27:44,2.4399998,3.24,-9.28,0.03,-0.03,0.01,0.03,-0.03,0.01,2,Lying,4
2019-01-20,16:27:44,2.4399998,3.24,-9.28,0.01,0.0,0.0,0.01,0.0,0.0,2,Lying,4
2019-01-20,16:27:44,2.3799999,3.1499999,-9.09,0.01,0.0,0.0,0.01,0.0,0.0,2,Lying,4
2019-01-20,16:27:44,2.3799999,3.1499999,-9.09,-0.01,0.0,0.0,-0.01,0.0,0.0,2,Lying,4
2019-01-20,16:27:44,2.26,3.1599998,-8.96,-0.01,0.0,0.0,-0.01,0.0,0.0,2,Lying,4
2019-01-20,16:27:44,2.26,3.1599998,-8.96,0.0,0.0,0.0,0.0,0.0,0.0,2,Lying,4
2019-01-20,16:27:44,2.24,3.1699998,-8.99,0.0,0.0,0.0,0.0,0.0,0.0,2,Lying,4
2019-01-20,16:27:44,2.24,3.1699998,-8.99,0.02,-0.01,0.0,0.02,-0.01,0.0,2,Lying,4
2019-01-20,16:27:44,2.4199998,3.1699998,-9.01,0.02,-0.01,0.0,0.02,-0.01,0.0,2,Lying,4
2019-01-20,16:27:44,2.4199998,3.1699998,-9.01,0.04,-0.03,0.01,0.04,-0.03,0.01,2,Lying,4
2019-01-20,16:27:44,2.35,3.1499999,-9.2,0.04,-0.03,0.01,0.04,-0.03,0.01,2,Lying,4
2019-01-20,16:27:44,2.35,3.1499999,-9.2,0.049999997000000004,-0.049999997000000004,0.0,0.049999997000000004,-0.049999997000000004,0.0,2,Lying,4
2019-01-20,16:27:44,2.32,3.12,-9.2,0.049999997000000004,-0.049999997000000004,0.0,0.049999997000000004,-0.049999997000000004,0.0,2,Lying,4
2019-01-20,16:27:44,2.32,3.12,-9.2,0.049999997000000004,-0.04,0.0,0.049999997000000004,-0.04,0.0,2,Lying,4
2019-01-20,16:27:44,2.3,3.12,-9.22,0.049999997000000004,-0.04,0.0,0.049999997000000004,-0.04,0.0,2,Lying,4
2019-01-20,16:27:44,2.3,3.12,-9.22,0.04,-0.03,0.0,0.04,-0.03,0.0,2,Lying,4
2019-01-20,16:27:45,2.31,3.1,-9.22,0.04,-0.03,0.0,0.04,-0.03,0.0,2,Lying,4
2019-01-20,16:27:45,2.31,3.1,-9.22,0.03,-0.01,0.0,0.03,-0.01,0.0,2,Lying,4
2019-01-20,16:27:45,2.32,3.1,-9.17,0.03,-0.01,0.0,0.03,-0.01,0.0,2,Lying,4
2019-01-20,16:27:45,2.32,3.1,-9.17,0.02,0.0,0.0,0.02,0.0,0.0,2,Lying,4
2019-01-20,16:27:45,2.27,3.09,-9.16,0.02,0.0,0.0,0.02,0.0,0.0,2,Lying,4
2019-01-20,16:27:45,2.27,3.09,-9.16,0.01,0.0,0.0,0.01,0.0,0.0,2,Lying,4
2019-01-20,16:27:45,2.24,3.05,-9.24,0.01,0.0,0.0,0.01,0.0,0.0,2,Lying,4
2019-01-20,16:27:45,2.24,3.05,-9.24,0.01,0.0,0.0,0.01,0.0,0.0,2,Lying,4
2019-01-20,16:27:45,2.34,3.09,-9.15,0.01,0.0,0.0,0.01,0.0,0.0,2,Lying,4
2019-01-20,16:27:45,2.34,3.09,-9.15,0.0,-0.01,0.0,0.0,-0.01,0.0,2,Lying,4
2019-01-20,16:27:45,2.24,3.1,-9.19,0.0,-0.01,0.0,0.0,-0.01,0.0,2,Lying,4
2019-01-20,16:27:45,2.24,3.1,-9.19,0.0,-0.02,0.0,0.0,-0.02,0.0,2,Lying,4
2019-01-20,16:27:45,2.23,3.11,-9.19,0.0,-0.02,0.0,0.0,-0.02,0.0,2,Lying,4
2019-01-20,16:27:45,2.23,3.11,-9.19,0.01,-0.01,0.0,0.01,-0.01,0.0,2,Lying,4
2019-01-20,16:27:45,2.23,3.03,-9.24,0.01,-0.01,0.0,0.01,-0.01,0.0,2,Lying,4
2019-01-20,16:27:45,2.23,3.03,-9.24,0.01,0.0,0.0,0.01,0.0,0.0,2,Lying,4
2019-01-20,16:27:45,2.24,3.05,-9.27,0.01,0.0,0.0,0.01,0.0,0.0,2,Lying,4
2019-01-20,16:27:45,2.24,3.05,-9.27,0.02,0.0,0.0,0.02,0.0,0.0,2,Lying,4
2019-01-20,16:27:45,2.28,3.07,-9.23,0.02,0.0,0.0,0.02,0.0,0.0,2,Lying,4
2019-01-20,16:27:45,2.28,3.07,-9.23,0.01,0.0,0.0,0.01,0.0,0.0,2,Lying,4
2019-01-20,16:27:45,2.3,3.08,-9.21,0.01,0.0,0.0,0.01,0.0,0.0,2,Lying,4
2019-01-20,16:27:45,2.3,3.08,-9.21,0.0,0.0,0.0,0.0,0.0,0.0,2,Lying,4
2019-01-20,16:27:45,2.23,3.04,-9.24,0.0,0.0,0.0,0.0,0.0,0.0,2,Lying,4
2019-01-20,16:27:45,2.23,3.04,-9.24,0.0,0.0,0.0,0.0,0.0,0.0,2,Lying,4
2019-01-20,16:27:45,2.26,3.1,-9.27,0.0,0.0,0.0,0.0,0.0,0.0,2,Lying,4
2019-01-20,16:27:45,2.26,3.1,-9.27,0.0,0.0,0.0,0.0,0.0,0.0,2,Lying,4
2019-01-20,16:27:45,2.27,3.05,-9.24,0.0,0.0,0.0,0.0,0.0,0.0,2,Lying,4
2019-01-20,16:27:45,2.27,3.05,-9.24,0.0,0.0,0.0,0.0,0.0,0.0,2,Lying,4
2019-01-20,16:27:45,2.1999998,3.05,-9.16,0.0,0.0,0.0,0.0,0.0,0.0,2,Lying,4
2019-01-20,16:27:45,2.1999998,3.05,-9.16,0.0,0.0,0.0,0.0,0.0,0.0,2,Lying,4
2019-01-20,16:27:45,2.1899998,3.03,-9.17,0.0,0.0,0.0,0.0,0.0,0.0,2,Lying,4
2019-01-20,16:27:45,2.1899998,3.03,-9.17,0.0,0.01,0.0,0.0,0.01,0.0,2,Lying,4
2019-01-20,16:27:45,2.23,3.07,-9.21,0.0,0.01,0.0,0.0,0.01,0.0,2,Lying,4
2019-01-20,16:27:45,2.23,3.07,-9.21,0.0,0.0,0.0,0.0,0.0,0.0,2,Lying,4
2019-01-20,16:27:45,2.29,3.02,-9.22,0.0,0.0,0.0,0.0,0.0,0.0,2,Lying,4
2019-01-20,16:27:45,2.29,3.02,-9.22,0.0,0.0,0.0,0.0,0.0,0.0,2,Lying,4
2019-01-20,16:27:45,2.23,3.05,-9.21,0.0,0.0,0.0,0.0,0.0,0.0,2,Lying,4
2019-01-20,16:27:45,2.23,3.05,-9.21,0.0,-0.01,0.0,0.0,-0.01,0.0,2,Lying,4
2019-01-20,16:27:45,2.22,3.09,-9.24,0.0,-0.01,0.0,0.0,-0.01,0.0,2,Lying,4
2019-01-20,16:27:45,2.22,3.09,-9.24,0.0,0.0,0.0,0.0,0.0,0.0,2,Lying,4
2019-01-20,16:27:45,2.26,3.06,-9.23,0.0,0.0,0.0,0.0,0.0,0.0,2,Lying,4
2019-01-20,16:27:45,2.26,3.06,-9.23,0.0,0.0,0.0,0.0,0.0,0.0,2,Lying,4
2019-01-20,16:27:45,2.1899998,3.04,-9.19,0.0,0.0,0.0,0.0,0.0,0.0,2,Lying,4
2019-01-20,16:27:45,2.1899998,3.04,-9.19,0.0,0.0,0.0,0.0,0.0,0.0,2,Lying,4
2019-01-20,16:27:45,2.1799998,2.99,-9.15,0.0,0.0,0.0,0.0,0.0,0.0,2,Lying,4
2019-01-20,16:27:46,2.1799998,2.99,-9.15,0.0,-0.01,0.0,0.0,-0.01,0.0,2,Lying,4
2019-01-20,16:27:46,2.23,3.02,-9.13,0.0,-0.01,0.0,0.0,-0.01,0.0,2,Lying,4
2019-01-20,16:27:46,2.23,3.02,-9.13,0.01,-0.03,0.01,0.01,-0.03,0.01,2,Lying,4
2019-01-20,16:27:46,2.25,2.98,-9.04,0.01,-0.03,0.01,0.01,-0.03,0.01,2,Lying,4
2019-01-20,16:27:46,2.25,2.98,-9.04,0.02,-0.049999997000000004,0.01,0.02,-0.049999997000000004,0.01,2,Lying,4
2019-01-20,16:27:46,2.23,2.97,-9.12,0.02,-0.049999997000000004,0.01,0.02,-0.049999997000000004,0.01,2,Lying,4
2019-01-20,16:27:46,2.23,2.97,-9.12,0.03,-0.07,0.0,0.03,-0.07,0.0,2,Lying,4
2019-01-20,16:27:46,2.1999998,3.01,-9.15,0.03,-0.07,0.0,0.03,-0.07,0.0,2,Lying,4
2019-01-20,16:27:46,2.1999998,3.01,-9.15,0.06,-0.09999999400000001,0.0,0.06,-0.09999999400000001,0.0,2,Lying,4
2019-01-20,16:27:46,2.1399999,2.96,-9.21,0.06,-0.09999999400000001,0.0,0.06,-0.09999999400000001,0.0,2,Lying,4
2019-01-20,16:27:46,2.1399999,2.96,-9.21,0.07,-0.12,-0.01,0.07,-0.12,-0.01,2,Lying,4
2019-01-20,16:27:46,2.23,2.9299998,-9.18,0.07,-0.12,-0.01,0.07,-0.12,-0.01,2,Lying,4
2019-01-20,16:27:46,2.23,2.9299998,-9.18,0.08,-0.14999999,-0.02,0.08,-0.14999999,-0.02,2,Lying,4
2019-01-20,16:27:46,1.81,2.79,-9.32,0.08,-0.14999999,-0.02,0.08,-0.14999999,-0.02,2,Lying,4
2019-01-20,16:27:46,1.81,2.79,-9.32,0.13,-0.049999997000000004,-0.04,0.13,-0.049999997000000004,-0.04,2,Lying,4
2019-01-20,16:27:46,1.7399999,2.9299998,-9.46,0.13,-0.049999997000000004,-0.04,0.13,-0.049999997000000004,-0.04,2,Lying,4
2019-01-20,16:27:46,1.7399999,2.9299998,-9.46,0.12,-0.09999999400000001,-0.049999997000000004,0.12,-0.09999999400000001,-0.049999997000000004,2,Lying,4
2019-01-20,16:27:46,1.81,2.69,-9.37,0.12,-0.09999999400000001,-0.049999997000000004,0.12,-0.09999999400000001,-0.049999997000000004,2,Lying,4
2019-01-20,16:27:46,1.81,2.69,-9.37,0.09999999400000001,-0.13,-0.049999997000000004,0.09999999400000001,-0.13,-0.049999997000000004,2,Lying,4
2019-01-20,16:27:46,1.8699999,2.69,-9.36,0.09999999400000001,-0.13,-0.049999997000000004,0.09999999400000001,-0.13,-0.049999997000000004,2,Lying,4
2019-01-20,16:27:46,1.8699999,2.69,-9.36,0.09999999400000001,-0.17999999,-0.06,0.09999999400000001,-0.17999999,-0.06,2,Lying,4
2019-01-20,16:27:46,1.7199999,2.6299999,-9.3,0.09999999400000001,-0.17999999,-0.06,0.09999999400000001,-0.17999999,-0.06,2,Lying,4
2019-01-20,16:27:46,1.7199999,2.6299999,-9.3,0.08,-0.21,-0.12,0.08,-0.21,-0.12,2,Lying,4
2019-01-20,16:27:46,1.53,2.57,-9.519999499999999,0.08,-0.21,-0.12,0.08,-0.21,-0.12,2,Lying,4
2019-01-20,16:27:46,1.53,2.57,-9.519999499999999,0.14,-0.26999998,-0.16,0.14,-0.26999998,-0.16,2,Lying,4
2019-01-20,16:27:46,1.4499999,2.53,-9.47,0.14,-0.26999998,-0.16,0.14,-0.26999998,-0.16,2,Lying,4
2019-01-20,16:27:46,1.4499999,2.53,-9.47,0.16,-0.28,-0.17999999,0.16,-0.28,-0.17999999,2,Lying,4
2019-01-20,16:27:46,1.4,2.62,-9.53,0.16,-0.28,-0.17999999,0.16,-0.28,-0.17999999,2,Lying,4
2019-01-20,16:27:46,1.4,2.62,-9.53,0.16,-0.34,-0.21,0.16,-0.34,-0.21,2,Lying,4
2019-01-20,16:27:46,1.1099999,2.58,-9.51,0.16,-0.34,-0.21,0.16,-0.34,-0.21,2,Lying,4
2019-01-20,16:27:46,1.1099999,2.58,-9.51,0.19,-0.32,-0.24,0.19,-0.32,-0.24,2,Lying,4
2019-01-20,16:27:46,0.87999994,2.51,-9.58,0.19,-0.32,-0.24,0.19,-0.32,-0.24,2,Lying,4
2019-01-20,16:27:46,0.87999994,2.51,-9.58,0.19999999,-0.31,-0.22999999,0.19999999,-0.31,-0.22999999,2,Lying,4
2019-01-20,16:27:46,0.6999999,2.3799999,-9.75,0.19999999,-0.31,-0.22999999,0.19999999,-0.31,-0.22999999,2,Lying,4
2019-01-20,16:27:46,0.6999999,2.3799999,-9.75,0.19,-0.28,-0.22,0.19,-0.28,-0.22,2,Lying,4
2019-01-20,16:27:46,0.60999995,2.4099998,-9.86,0.19,-0.28,-0.22,0.19,-0.28,-0.22,2,Lying,4
2019-01-20,16:27:46,0.60999995,2.4099998,-9.86,0.16,-0.24,-0.19,0.16,-0.24,-0.19,2,Lying,4
2019-01-20,16:27:46,0.32999998,2.33,-9.93,0.16,-0.24,-0.19,0.16,-0.24,-0.19,2,Lying,4
2019-01-20,16:27:46,0.32999998,2.33,-9.93,0.16,-0.17999999,-0.19,0.16,-0.17999999,-0.19,2,Lying,4
2019-01-20,16:27:46,0.21,2.1399999,-10.0,0.16,-0.17999999,-0.19,0.16,-0.17999999,-0.19,2,Lying,4
2019-01-20,16:27:46,0.21,2.1399999,-10.0,0.13,-0.14999999,-0.14999999,0.13,-0.14999999,-0.14999999,2,Lying,4
2019-01-20,16:27:46,0.29,2.1599998,-9.82,0.13,-0.14999999,-0.14999999,0.13,-0.14999999,-0.14999999,2,Lying,4
2019-01-20,16:27:46,0.29,2.1599998,-9.82,0.11,-0.25,-0.09999999400000001,0.11,-0.25,-0.09999999400000001,2,Lying,4
2019-01-20,16:27:46,0.12,2.19,-9.76,0.11,-0.25,-0.09999999400000001,0.11,-0.25,-0.09999999400000001,2,Lying,4
2019-01-20,16:27:46,0.12,2.19,-9.76,0.11,-0.19,-0.07,0.11,-0.19,-0.07,2,Lying,4
2019-01-20,16:27:47,-1.13,1.37,-9.78,0.11,-0.19,-0.07,0.11,-0.19,-0.07,2,Lying,4
2019-01-20,16:27:47,-1.13,1.37,-9.78,0.11,-0.14,-0.03,0.11,-0.14,-0.03,2,Lying,4
2019-01-20,16:27:47,0.67999995,1.9099998,-9.83,0.11,-0.14,-0.03,0.11,-0.14,-0.03,2,Lying,4
2019-01-20,16:27:47,0.67999995,1.9099998,-9.83,0.22999999,0.44,0.07,0.22999999,0.44,0.07,2,Lying,4
2019-01-20,16:27:47,0.75999993,1.8999999,-9.86,0.22999999,0.44,0.07,0.22999999,0.44,0.07,2,Lying,4
2019-01-20,16:27:47,0.75999993,1.8999999,-9.86,0.19999999,0.39999998,0.09999999400000001,0.19999999,0.39999998,0.09999999400000001,2,Lying,4
2019-01-20,16:27:47,0.84,1.8499999,-9.92,0.19999999,0.39999998,0.09999999400000001,0.19999999,0.39999998,0.09999999400000001,2,Lying,4
2019-01-20,16:27:47,0.84,1.8499999,-9.92,0.21,0.39,0.07,0.21,0.39,0.07,2,Lying,4
2019-01-20,16:27:47,0.9,1.6600001,-10.08,0.21,0.39,0.07,0.21,0.39,0.07,2,Lying,4
2019-01-20,16:27:47,0.9,1.6600001,-10.08,0.26999998,0.35999998,0.089999996,0.26999998,0.35999998,0.089999996,2,Lying,4
2019-01-20,16:27:47,1.28,1.6499999,-9.68,0.26999998,0.35999998,0.089999996,0.26999998,0.35999998,0.089999996,2,Lying,4
2019-01-20,16:27:47,1.28,1.6499999,-9.68,0.28,0.25,0.09999999400000001,0.28,0.25,0.09999999400000001,2,Lying,4
2019-01-20,16:27:47,1.01,1.4399998999999999,-9.84,0.28,0.25,0.09999999400000001,0.28,0.25,0.09999999400000001,2,Lying,4
2019-01-20,16:27:47,1.01,1.4399998999999999,-9.84,0.32,0.39999998,0.089999996,0.32,0.39999998,0.089999996,2,Lying,4
2019-01-20,16:27:47,1.56,1.24,-10.19,0.32,0.39999998,0.089999996,0.32,0.39999998,0.089999996,2,Lying,4
2019-01-20,16:27:47,1.56,1.24,-10.19,0.34,0.51,0.09999999400000001,0.34,0.51,0.09999999400000001,2,Lying,4
2019-01-20,16:27:47,2.51,1.01,-10.18,0.34,0.51,0.09999999400000001,0.34,0.51,0.09999999400000001,2,Lying,4
2019-01-20,16:27:47,2.51,1.01,-10.18,0.19999999,0.31,0.06,0.19999999,0.31,0.06,2,Lying,4
2019-01-20,16:27:47,2.1399999,1.01,-10.3,0.19999999,0.31,0.06,0.19999999,0.31,0.06,2,Lying,4
2019-01-20,16:27:47,2.1399999,1.01,-10.3,0.089999996,0.17999999,0.02,0.089999996,0.17999999,0.02,2,Lying,4
2019-01-20,16:27:47,1.8799999,1.0799999,-10.13,0.089999996,0.17999999,0.02,0.089999996,0.17999999,0.02,2,Lying,4
2019-01-20,16:27:47,1.8799999,1.0799999,-10.13,0.04,0.089999996,0.04,0.04,0.089999996,0.04,2,Lying,4
2019-01-20,16:27:47,1.5899999,1.11,-9.91,0.04,0.089999996,0.04,0.04,0.089999996,0.04,2,Lying,4
2019-01-20,16:27:47,1.5899999,1.11,-9.91,0.0,-0.049999997000000004,0.04,0.0,-0.049999997000000004,0.04,2,Lying,4
2019-01-20,16:27:47,1.4,1.0,-9.84,0.0,-0.049999997000000004,0.04,0.0,-0.049999997000000004,0.04,2,Lying,4
2019-01-20,16:27:47,1.4,1.0,-9.84,0.0,-0.09999999400000001,0.03,0.0,-0.09999999400000001,0.03,2,Lying,4
2019-01-20,16:27:47,0.9499999,1.6600001,-10.18,0.0,-0.09999999400000001,0.03,0.0,-0.09999999400000001,0.03,2,Lying,4
2019-01-20,16:27:47,0.9499999,1.6600001,-10.18,0.04,0.07,0.0,0.04,0.07,0.0,2,Lying,4
2019-01-20,16:27:47,0.45,1.51,-10.51,0.04,0.07,0.0,0.04,0.07,0.0,2,Lying,4
2019-01-20,16:27:47,0.45,1.51,-10.51,0.049999997000000004,0.06,0.01,0.049999997000000004,0.06,0.01,2,Lying,4
2019-01-20,16:27:47,1.17,1.04,-10.6,0.049999997000000004,0.06,0.01,0.049999997000000004,0.06,0.01,2,Lying,4
2019-01-20,16:27:47,1.17,1.04,-10.6,-0.09999999400000001,-0.68,0.29999998,-0.09999999400000001,-0.68,0.29999998,2,Lying,4
2019-01-20,16:27:47,1.28,1.5899999,-10.93,-0.09999999400000001,-0.68,0.29999998,-0.09999999400000001,-0.68,0.29999998,2,Lying,4
2019-01-20,16:27:47,1.28,1.5899999,-10.93,-0.13,0.26,0.45999998,-0.13,0.26,0.45999998,2,Lying,4
2019-01-20,16:27:47,1.77,1.51,-10.67,-0.13,0.26,0.45999998,-0.13,0.26,0.45999998,2,Lying,4
2019-01-20,16:27:47,1.77,1.51,-10.67,-0.28,0.37,0.42999998,-0.28,0.37,0.42999998,2,Lying,4
2019-01-20,16:27:47,1.6199999,0.99,-10.19,-0.28,0.37,0.42999998,-0.28,0.37,0.42999998,2,Lying,4
2019-01-20,16:27:47,1.6199999,0.99,-10.19,-0.28,0.28,0.24,-0.28,0.28,0.24,2,Lying,4
2019-01-20,16:27:47,2.6699998,0.0,-8.96,-0.28,0.28,0.24,-0.28,0.28,0.24,2,Lying,4
2019-01-20,16:27:47,2.6699998,0.0,-8.96,-0.14999999,-0.28,-0.16,-0.14999999,-0.28,-0.16,2,Lying,4
2019-01-20,16:27:47,2.4099998,3.08,-8.06,-0.14999999,-0.28,-0.16,-0.14999999,-0.28,-0.16,2,Lying,4
2019-01-20,16:27:47,2.4099998,3.08,-8.06,-0.02,-0.51,-0.63,-0.02,-0.51,-0.63,2,Lying,4
2019-01-20,16:27:47,-0.11,3.3999998999999996,-7.89,-0.02,-0.51,-0.63,-0.02,-0.51,-0.63,2,Lying,4
2019-01-20,16:27:47,-0.11,3.3999998999999996,-7.89,-0.14,-0.14,-1.04,-0.14,-0.14,-1.04,2,Lying,4
2019-01-20,16:27:48,0.47,0.71000004,-8.3,-0.14,-0.14,-1.04,-0.14,-0.14,-1.04,2,Lying,4
2019-01-20,16:27:48,0.47,0.71000004,-8.3,-0.63,-0.48,-0.47,-0.63,-0.48,-0.47,2,Lying,4
2019-01-20,16:27:48,0.39,-0.38,-9.4,-0.63,-0.48,-0.47,-0.63,-0.48,-0.47,2,Lying,4
2019-01-20,16:27:48,0.39,-0.38,-9.4,-0.7,-0.22,-0.049999997000000004,-0.7,-0.22,-0.049999997000000004,2,Lying,4
2019-01-20,16:27:48,3.9099998,1.1,-10.18,-0.7,-0.22,-0.049999997000000004,-0.7,-0.22,-0.049999997000000004,2,Lying,4
2019-01-20,16:27:48,3.9099998,1.1,-10.18,0.07,-0.42,0.48,0.07,-0.42,0.48,2,Lying,4
2019-01-20,16:27:48,3.4399998,3.1599998,-9.98,0.07,-0.42,0.48,0.07,-0.42,0.48,2,Lying,4
2019-01-20,16:27:48,3.4399998,3.1599998,-9.98,0.78999996,0.02,0.42999998,0.78999996,0.02,0.42999998,2,Lying,4
2019-01-20,16:27:48,3.2299998,2.32,-11.019999499999999,0.78999996,0.02,0.42999998,0.78999996,0.02,0.42999998,2,Lying,4
2019-01-20,16:27:48,3.2299998,2.32,-11.019999499999999,0.53999996,1.8499999,0.26,0.53999996,1.8499999,0.26,2,Lying,4
2019-01-20,16:27:48,2.3899999,1.5699999,-11.42,0.53999996,1.8499999,0.26,0.53999996,1.8499999,0.26,2,Lying,4
2019-01-20,16:27:48,2.3899999,1.5699999,-11.42,0.35999998,1.4,0.11,0.35999998,1.4,0.11,2,Lying,4
2019-01-20,16:27:48,1.27,1.24,-9.96,0.35999998,1.4,0.11,0.35999998,1.4,0.11,2,Lying,4
2019-01-20,16:27:48,1.27,1.24,-9.96,0.19,0.78999996,0.02,0.19,0.78999996,0.02,2,Lying,4
2019-01-20,16:27:48,0.62999994,0.88,-9.93,0.19,0.78999996,0.02,0.19,0.78999996,0.02,2,Lying,4
2019-01-20,16:27:48,0.62999994,0.88,-9.93,0.16,0.75,-0.03,0.16,0.75,-0.03,2,Lying,4
2019-01-20,16:27:48,1.91,1.54,-9.82,0.16,0.75,-0.03,0.16,0.75,-0.03,2,Lying,4
2019-01-20,16:27:48,1.91,1.54,-9.82,0.21,0.29,0.35999998,0.21,0.29,0.35999998,2,Lying,4
2019-01-20,16:27:48,3.2099998,1.1999999,-9.9,0.21,0.29,0.35999998,0.21,0.29,0.35999998,2,Lying,4
2019-01-20,16:27:48,3.2099998,1.1999999,-9.9,0.01,0.26,0.47,0.01,0.26,0.47,2,Lying,4
2019-01-20,16:27:48,3.7099998,-0.45,-9.29,0.01,0.26,0.47,0.01,0.26,0.47,2,Lying,4
2019-01-20,16:27:48,3.7099998,-0.45,-9.29,0.02,0.17,0.32999998,0.02,0.17,0.32999998,2,Lying,4
2019-01-20,16:27:48,3.3899998999999994,0.68999994,-9.88,0.02,0.17,0.32999998,0.02,0.17,0.32999998,2,Lying,4
2019-01-20,16:27:48,3.3899998999999994,0.68999994,-9.88,0.19,0.089999996,0.089999996,0.19,0.089999996,0.089999996,2,Lying,4
2019-01-20,16:27:48,3.62,1.16,-9.95,0.19,0.089999996,0.089999996,0.19,0.089999996,0.089999996,2,Lying,4
2019-01-20,16:27:48,3.62,1.16,-9.95,0.22,0.04,0.11,0.22,0.04,0.11,2,Lying,4
2019-01-20,16:27:48,3.27,0.43,-10.019999499999999,0.22,0.04,0.11,0.22,0.04,0.11,2,Lying,4
2019-01-20,16:27:48,3.27,0.43,-10.019999499999999,0.07,0.02,0.01,0.07,0.02,0.01,2,Lying,4
2019-01-20,16:27:48,2.6699998,0.76,-9.65,0.07,0.02,0.01,0.07,0.02,0.01,2,Lying,4
2019-01-20,16:27:48,2.6699998,0.76,-9.65,-0.04,0.0,0.0,-0.04,0.0,0.0,2,Lying,4
2019-01-20,16:27:48,2.9299998,0.91999996,-9.93,-0.09999999400000001,0.03,0.04,-0.09999999400000001,0.03,0.04,2,Lying,4
2019-01-20,16:27:48,2.9299998,0.91999996,-9.93,-0.09999999400000001,0.03,0.04,-0.09999999400000001,0.03,0.04,2,Lying,4
2019-01-20,16:27:48,3.08,1.36,-9.94,-0.09999999400000001,0.03,0.04,-0.09999999400000001,0.03,0.04,2,Lying,4
2019-01-20,16:27:48,3.08,1.36,-9.94,-0.12,0.12,0.04,-0.12,0.12,0.04,2,Lying,4
2019-01-20,16:27:48,2.9199998,0.41000003,-10.12,-0.12,0.12,0.04,-0.12,0.12,0.04,2,Lying,4
2019-01-20,16:27:48,2.9199998,0.41000003,-10.12,-0.049999997000000004,0.0,0.01,-0.049999997000000004,0.0,0.01,2,Lying,4
2019-01-20,16:27:48,3.1799998,0.93999994,-9.22,-0.08,-0.09999999400000001,-0.01,-0.08,-0.09999999400000001,-0.01,2,Lying,4
2019-01-20,16:27:48,3.1799998,0.93999994,-9.22,-0.08,-0.09999999400000001,-0.01,-0.08,-0.09999999400000001,-0.01,2,Lying,4
2019-01-20,16:27:48,2.6999998,0.98,-9.18,-0.08,-0.09999999400000001,-0.01,-0.08,-0.09999999400000001,-0.01,2,Lying,4
2019-01-20,16:27:48,2.6999998,0.98,-9.18,-0.07,-0.11,-0.089999996,-0.07,-0.11,-0.089999996,2,Lying,4
2019-01-20,16:27:48,3.9299998,0.52,-9.23,-0.07,-0.11,-0.089999996,-0.07,-0.11,-0.089999996,2,Lying,4
2019-01-20,16:27:48,3.9299998,0.52,-9.23,-0.049999997000000004,0.02,0.01,-0.049999997000000004,0.02,0.01,2,Lying,4
2019-01-20,16:27:48,3.1999998,1.14,-9.67,-0.049999997000000004,0.02,0.01,-0.049999997000000004,0.02,0.01,2,Lying,4
2019-01-20,16:27:48,3.1999998,1.14,-9.67,0.01,0.07,0.01,0.01,0.07,0.01,2,Lying,4
2019-01-20,16:27:49,3.1599998,0.87,-9.55,0.01,0.07,0.01,0.01,0.07,0.01,2,Lying,4
2019-01-20,16:27:49,3.1599998,0.87,-9.55,0.08,0.04,0.0,0.08,0.04,0.0,2,Lying,4
2019-01-20,16:27:49,3.4499998,0.90999997,-9.71,0.08,0.04,0.0,0.08,0.04,0.0,2,Lying,4
2019-01-20,16:27:49,3.4499998,0.90999997,-9.71,0.08,0.06,0.01,0.08,0.06,0.01,2,Lying,4
2019-01-20,16:27:49,3.1799998,0.73,-9.72,0.08,0.06,0.01,0.08,0.06,0.01,2,Lying,4
2019-01-20,16:27:49,3.1799998,0.73,-9.72,0.11,0.02,0.0,0.11,0.02,0.0,2,Lying,4
2019-01-20,16:27:49,3.2199998,0.66999996,-9.91,0.11,0.02,0.0,0.11,0.02,0.0,2,Lying,4
2019-01-20,16:27:49,3.2199998,0.66999996,-9.91,0.08,0.03,0.01,0.08,0.03,0.01,2,Lying,4
2019-01-20,16:27:49,3.27,0.84000003,-9.67,0.04,0.03,0.0,0.04,0.03,0.0,2,Lying,4
2019-01-20,16:27:49,3.27,0.84000003,-9.67,0.04,0.03,0.0,0.04,0.03,0.0,2,Lying,4
2019-01-20,16:27:49,3.3799998999999996,0.92999995,-9.64,0.04,0.03,0.0,0.04,0.03,0.0,2,Lying,4
2019-01-20,16:27:49,3.3799998999999996,0.92999995,-9.64,-0.04,0.03,0.0,-0.04,0.03,0.0,2,Lying,4
2019-01-20,16:27:49,3.28,0.91999996,-9.61,-0.04,0.03,0.0,-0.04,0.03,0.0,2,Lying,4
2019-01-20,16:27:49,3.28,0.91999996,-9.61,-0.07,0.01,0.0,-0.07,0.01,0.0,2,Lying,4
2019-01-20,16:27:49,3.1799998,0.92999995,-9.55,-0.07,0.01,0.0,-0.07,0.01,0.0,2,Lying,4
2019-01-20,16:27:49,3.1799998,0.92999995,-9.55,-0.07,0.01,0.0,-0.07,0.01,0.0,2,Lying,4
2019-01-20,16:27:49,3.1899998,0.92999995,-9.29,-0.07,0.01,0.0,-0.07,0.01,0.0,2,Lying,4
2019-01-20,16:27:49,3.1899998,0.92999995,-9.29,-0.049999997000000004,0.02,0.0,-0.049999997000000004,0.02,0.0,2,Lying,4
2019-01-20,16:27:49,3.36,0.86,-9.73,-0.049999997000000004,0.02,0.0,-0.049999997000000004,0.02,0.0,2,Lying,4
2019-01-20,16:27:49,3.36,0.86,-9.73,0.07,0.0,0.0,0.07,0.0,0.0,2,Lying,4
2019-01-20,16:27:49,3.29,0.80999994,-9.79,0.07,0.0,0.0,0.07,0.0,0.0,2,Lying,4
2019-01-20,16:27:49,3.29,0.80999994,-9.79,0.07,-0.01,0.0,0.07,-0.01,0.0,2,Lying,4
2019-01-20,16:27:49,3.62,0.79999995,-9.61,0.07,-0.01,0.0,0.07,-0.01,0.0,2,Lying,4
2019-01-20,16:27:49,3.62,0.79999995,-9.61,0.03,-0.04,0.0,0.03,-0.04,0.0,2,Lying,4
2019-01-20,16:27:49,3.2099998,0.90999997,-9.58,0.03,-0.04,0.0,0.03,-0.04,0.0,2,Lying,4
2019-01-20,16:27:49,3.2099998,0.90999997,-9.58,0.0,-0.01,0.0,0.0,-0.01,0.0,2,Lying,4
2019-01-20,16:27:49,3.28,0.79999995,-9.55,0.0,-0.01,0.0,0.0,-0.01,0.0,2,Lying,4
2019-01-20,16:27:49,3.28,0.79999995,-9.55,-0.02,0.0,0.0,-0.02,0.0,0.0,2,Lying,4
2019-01-20,16:27:49,3.32,0.77,-9.63,-0.02,0.0,0.0,-0.02,0.0,0.0,2,Lying,4
2019-01-20,16:27:49,3.32,0.77,-9.63,-0.01,0.0,0.0,-0.01,0.0,0.0,2,Lying,4
2019-01-20,16:27:49,3.27,1.0799999,-9.73,-0.01,0.0,0.0,-0.01,0.0,0.0,2,Lying,4
2019-01-20,16:27:49,3.27,1.0799999,-9.73,0.0,0.0,0.0,0.0,0.0,0.0,2,Lying,4
2019-01-20,16:27:49,3.24,0.93999994,-9.519999499999999,0.0,0.0,0.0,0.0,0.0,0.0,2,Lying,4
2019-01-20,16:27:49,3.24,0.93999994,-9.519999499999999,0.0,0.0,0.0,0.0,0.0,0.0,2,Lying,4
2019-01-20,16:27:49,3.27,0.81999993,-9.6,0.0,0.0,0.0,0.0,0.0,0.0,2,Lying,4
2019-01-20,16:27:49,3.27,0.81999993,-9.6,-0.01,0.01,0.0,-0.01,0.01,0.0,2,Lying,4
2019-01-20,16:27:49,3.1499999,0.78999996,-9.55,-0.01,0.01,0.0,-0.01,0.01,0.0,2,Lying,4
2019-01-20,16:27:49,3.1499999,0.78999996,-9.55,-0.01,0.0,0.0,-0.01,0.0,0.0,2,Lying,4
2019-01-20,16:27:49,3.33,0.86,-9.64,-0.01,0.0,0.0,-0.01,0.0,0.0,2,Lying,4
2019-01-20,16:27:49,3.33,0.86,-9.64,0.0,0.0,0.0,0.0,0.0,0.0,2,Lying,4
2019-01-20,16:27:49,3.2099998,0.83000004,-9.58,0.0,0.0,0.0,0.0,0.0,0.0,2,Lying,4
2019-01-20,16:27:49,3.2099998,0.83000004,-9.58,0.02,0.0,0.0,0.02,0.0,0.0,2,Lying,4
2019-01-20,16:27:49,3.31,0.83000004,-9.79,0.02,0.0,0.0,0.02,0.0,0.0,2,Lying,4
2019-01-20,16:27:50,3.31,0.83000004,-9.79,0.049999997000000004,-0.01,0.0,0.049999997000000004,-0.01,0.0,2,Lying,4
2019-01-20,16:27:50,3.24,0.79999995,-9.72,0.049999997000000004,-0.01,0.0,0.049999997000000004,-0.01,0.0,2,Lying,4
2019-01-20,16:27:50,3.24,0.79999995,-9.72,0.01,0.0,0.0,0.01,0.0,0.0,2,Lying,4
2019-01-20,16:27:50,3.29,0.83000004,-9.78,0.01,0.0,0.0,0.01,0.0,0.0,2,Lying,4
2019-01-20,16:27:50,3.29,0.83000004,-9.78,0.0,0.0,0.0,0.0,0.0,0.0,2,Lying,4
2019-01-20,16:27:50,3.24,0.83000004,-9.59,0.0,0.0,0.0,0.0,0.0,0.0,2,Lying,4
2019-01-20,16:27:50,3.24,0.83000004,-9.59,-0.04,0.01,0.0,-0.04,0.01,0.0,2,Lying,4
2019-01-20,16:27:50,3.25,0.88,-9.5,-0.04,0.01,0.0,-0.04,0.01,0.0,2,Lying,4
2019-01-20,16:27:50,3.25,0.88,-9.5,-0.04,0.01,0.0,-0.04,0.01,0.0,2,Lying,4
2019-01-20,16:27:50,3.31,0.85,-9.57,-0.04,0.01,0.0,-0.04,0.01,0.0,2,Lying,4
2019-01-20,16:27:50,3.31,0.85,-9.57,0.01,0.0,0.0,0.01,0.0,0.0,2,Lying,4
2019-01-20,16:27:50,3.25,0.77,-9.62,0.01,0.0,0.0,0.01,0.0,0.0,2,Lying,4
2019-01-20,16:27:50,3.25,0.77,-9.62,0.049999997000000004,0.0,0.0,0.049999997000000004,0.0,0.0,2,Lying,4
2019-01-20,16:27:50,3.27,0.75,-9.57,0.049999997000000004,0.0,0.0,0.049999997000000004,0.0,0.0,2,Lying,4
2019-01-20,16:27:50,3.27,0.75,-9.57,0.06,0.0,0.0,0.06,0.0,0.0,2,Lying,4
2019-01-20,16:27:50,3.2299998,0.67999995,-9.72,0.06,0.0,0.0,0.06,0.0,0.0,2,Lying,4
2019-01-20,16:27:50,3.2299998,0.67999995,-9.72,0.049999997000000004,-0.01,0.0,0.049999997000000004,-0.01,0.0,2,Lying,4
2019-01-20,16:27:50,3.3,0.78999996,-9.63,0.049999997000000004,-0.01,0.0,0.049999997000000004,-0.01,0.0,2,Lying,4
2019-01-20,16:27:50,3.3,0.78999996,-9.63,0.01,0.0,0.0,0.01,0.0,0.0,2,Lying,4
2019-01-20,16:27:50,3.2299998,0.79999995,-9.6,0.01,0.0,0.0,0.01,0.0,0.0,2,Lying,4
2019-01-20,16:27:50,3.2299998,0.79999995,-9.6,-0.01,0.0,0.0,-0.01,0.0,0.0,2,Lying,4
2019-01-20,16:27:50,3.26,0.77,-9.6,-0.01,0.0,0.0,-0.01,0.0,0.0,2,Lying,4
2019-01-20,16:27:50,3.26,0.77,-9.6,0.0,0.0,0.0,0.0,0.0,0.0,2,Lying,4
2019-01-20,16:27:50,3.2099998,0.77,-9.68,0.0,0.0,0.0,0.0,0.0,0.0,2,Lying,4
2019-01-20,16:27:50,3.2099998,0.77,-9.68,0.0,0.0,0.0,0.0,0.0,0.0,2,Lying,4
2019-01-20,16:27:50,3.24,0.77,-9.7,0.0,0.0,0.0,0.0,0.0,0.0,2,Lying,4
2019-01-20,16:27:50,3.24,0.77,-9.7,0.01,0.0,0.0,0.01,0.0,0.0,2,Lying,4
2019-01-20,16:27:50,3.2299998,0.76,-9.63,0.01,0.0,0.0,0.01,0.0,0.0,2,Lying,4
2019-01-20,16:27:50,3.2299998,0.76,-9.63,0.0,0.0,0.0,0.0,0.0,0.0,2,Lying,4
2019-01-20,16:27:50,3.25,0.78,-9.65,0.0,0.0,0.0,0.0,0.0,0.0,2,Lying,4
2019-01-20,16:27:50,3.25,0.78,-9.65,-0.01,0.0,0.0,-0.01,0.0,0.0,2,Lying,4
2019-01-20,16:27:50,3.3,0.76,-9.61,-0.01,0.0,0.0,-0.01,0.0,0.0,2,Lying,4
2019-01-20,16:27:50,3.3,0.76,-9.61,-0.02,0.01,0.0,-0.02,0.01,0.0,2,Lying,4
2019-01-20,16:27:50,3.28,0.76,-9.62,-0.02,0.01,0.0,-0.02,0.01,0.0,2,Lying,4
2019-01-20,16:27:50,3.28,0.76,-9.62,-0.02,0.01,0.0,-0.02,0.01,0.0,2,Lying,4
2019-01-20,16:27:50,3.29,0.77,-9.65,-0.02,0.01,0.0,-0.02,0.01,0.0,2,Lying,4
2019-01-20,16:27:50,3.29,0.77,-9.65,-0.01,0.01,0.0,-0.01,0.01,0.0,2,Lying,4
2019-01-20,16:27:50,3.28,0.78999996,-9.58,-0.01,0.01,0.0,-0.01,0.01,0.0,2,Lying,4
2019-01-20,16:27:50,3.28,0.78999996,-9.58,0.0,0.0,0.0,0.0,0.0,0.0,2,Lying,4
2019-01-20,16:27:50,3.29,0.80999994,-9.66,0.0,0.0,0.0,0.0,0.0,0.0,2,Lying,4
2019-01-20,16:27:50,3.29,0.80999994,-9.66,0.02,0.0,0.0,0.02,0.0,0.0,2,Lying,4
2019-01-20,16:27:50,3.28,0.83000004,-9.6,0.02,0.0,0.0,0.02,0.0,0.0,2,Lying,4
2019-01-20,16:27:50,3.28,0.83000004,-9.6,0.01,0.0,0.0,0.01,0.0,0.0,2,Lying,4
2019-01-20,16:27:50,3.26,0.77,-9.65,0.01,0.0,0.0,0.01,0.0,0.0,2,Lying,4
2019-01-20,16:27:51,3.26,0.77,-9.65,0.02,0.0,0.0,0.02,0.0,0.0,2,Lying,4
2019-01-20,16:27:51,3.27,0.77,-9.64,0.02,0.0,0.0,0.02,0.0,0.0,2,Lying,4
2019-01-20,16:27:51,3.27,0.77,-9.64,0.0,0.0,0.0,0.0,0.0,0.0,2,Lying,4
2019-01-20,16:27:51,3.29,0.77,-9.67,0.0,0.0,0.0,0.0,0.0,0.0,2,Lying,4
2019-01-20,16:27:51,3.29,0.77,-9.67,0.0,0.0,0.0,0.0,0.0,0.0,2,Lying,4
2019-01-20,16:27:51,3.25,0.78,-9.62,0.0,0.0,0.0,0.0,0.0,0.0,2,Lying,4
2019-01-20,16:27:51,3.25,0.78,-9.62,0.0,0.0,0.0,0.0,0.0,0.0,2,Lying,4
2019-01-20,16:27:51,3.25,0.76,-9.64,0.0,0.0,0.0,0.0,0.0,0.0,2,Lying,4
2019-01-20,16:27:51,3.25,0.76,-9.64,0.0,0.01,0.0,0.0,0.01,0.0,2,Lying,4
2019-01-20,16:27:51,3.2199998,0.76,-9.64,0.0,0.01,0.0,0.0,0.01,0.0,2,Lying,4
2019-01-20,16:27:51,3.2199998,0.76,-9.64,0.0,0.0,0.0,0.0,0.0,0.0,2,Lying,4
2019-01-20,16:27:51,2.9399998,0.65,-9.71,0.0,0.0,0.0,0.0,0.0,0.0,2,Lying,4
2019-01-20,16:27:51,2.9399998,0.65,-9.71,0.0,0.0,0.0,0.0,0.0,0.0,2,Lying,4
2019-01-20,16:27:51,3.25,0.88,-9.53,0.0,0.0,0.0,0.0,0.0,0.0,2,Lying,4
2019-01-20,16:27:51,3.25,0.88,-9.53,0.0,0.0,0.0,0.0,0.0,0.0,2,Lying,4
2019-01-20,16:27:51,3.2099998,0.77,-9.58,0.0,0.0,0.0,0.0,0.0,0.0,2,Lying,4
2019-01-20,16:27:51,3.2099998,0.77,-9.58,0.0,0.0,0.0,0.0,0.0,0.0,2,Lying,4
2019-01-20,16:27:51,3.26,0.78999996,-9.68,0.0,0.0,0.0,0.0,0.0,0.0,2,Lying,4
2019-01-20,16:27:51,3.26,0.78999996,-9.68,0.0,0.0,0.0,0.0,0.0,0.0,2,Lying,4
2019-01-20,16:27:51,3.29,0.71000004,-9.69,0.0,0.0,0.0,0.0,0.0,0.0,2,Lying,4
2019-01-20,16:27:51,3.29,0.71000004,-9.69,0.0,0.0,0.0,0.0,0.0,0.0,2,Lying,4
2019-01-20,16:27:51,3.32,0.81999993,-9.65,0.0,0.0,0.0,0.0,0.0,0.0,2,Lying,4
2019-01-20,16:27:51,3.32,0.81999993,-9.65,-0.01,0.0,0.0,-0.01,0.0,0.0,2,Lying,4
2019-01-20,16:27:51,3.2199998,0.77,-9.6,-0.01,0.0,0.0,-0.01,0.0,0.0,2,Lying,4
2019-01-20,16:27:51,3.2199998,0.77,-9.6,0.0,0.0,0.0,0.0,0.0,0.0,2,Lying,4
2019-01-20,16:27:51,3.25,0.77,-9.64,0.0,0.0,0.0,0.0,0.0,0.0,2,Lying,4
2019-01-20,16:27:51,3.25,0.77,-9.64,0.0,0.0,0.0,0.0,0.0,0.0,2,Lying,4
2019-01-20,16:27:51,3.29,0.77,-9.68,0.0,0.0,0.0,0.0,0.0,0.0,2,Lying,4
2019-01-20,16:27:51,3.29,0.77,-9.68,0.0,0.0,0.0,0.0,0.0,0.0,2,Lying,4
2019-01-20,16:27:51,3.25,0.75,-9.63,0.0,0.0,0.0,0.0,0.0,0.0,2,Lying,4
2019-01-20,16:27:51,3.25,0.75,-9.63,0.0,0.0,0.0,0.0,0.0,0.0,2,Lying,4
2019-01-20,16:27:51,3.26,0.73,-9.57,0.0,0.0,0.0,0.0,0.0,0.0,2,Lying,4
2019-01-20,16:27:51,3.26,0.73,-9.57,0.0,0.0,0.0,0.0,0.0,0.0,2,Lying,4
2019-01-20,16:27:51,3.2299998,0.78,-9.64,0.0,0.0,0.0,0.0,0.0,0.0,2,Lying,4
2019-01-20,16:27:51,3.2299998,0.78,-9.64,0.0,0.0,0.0,0.0,0.0,0.0,2,Lying,4
2019-01-20,16:27:51,3.1699998,0.81999993,-9.65,0.0,0.0,0.0,0.0,0.0,0.0,2,Lying,4
2019-01-20,16:27:51,3.1699998,0.81999993,-9.65,-0.02,0.0,0.0,-0.02,0.0,0.0,2,Lying,4
2019-01-20,16:27:51,3.4699998,0.98,-9.58,-0.02,0.0,0.0,-0.02,0.0,0.0,2,Lying,4
2019-01-20,16:27:51,3.4699998,0.98,-9.58,-0.03,0.02,-0.02,-0.03,0.02,-0.02,2,Lying,4
2019-01-20,16:27:51,3.2199998,0.84000003,-9.68,-0.03,0.02,-0.02,-0.03,0.02,-0.02,2,Lying,4
2019-01-20,16:27:51,3.2199998,0.84000003,-9.68,-0.04,0.01,-0.03,-0.04,0.01,-0.03,2,Lying,4
2019-01-20,16:27:51,3.27,0.88,-9.59,-0.04,0.01,-0.03,-0.04,0.01,-0.03,2,Lying,4
2019-01-20,16:27:51,3.27,0.88,-9.59,-0.06,0.01,-0.01,-0.06,0.01,-0.01,2,Lying,4
2019-01-20,16:27:51,3.07,0.83000004,-9.76,-0.06,0.01,-0.01,-0.06,0.01,-0.01,2,Lying,4
2019-01-20,16:27:51,3.07,0.83000004,-9.76,-0.02,-0.01,-0.049999997000000004,-0.02,-0.01,-0.049999997000000004,2,Lying,4
2019-01-20,16:27:52,3.1899998,0.79999995,-9.79,-0.02,-0.01,-0.049999997000000004,-0.02,-0.01,-0.049999997000000004,2,Lying,4
2019-01-20,16:27:52,3.1899998,0.79999995,-9.79,-0.049999997000000004,0.0,0.0,-0.049999997000000004,0.0,0.0,2,Lying,4
2019-01-20,16:27:52,3.77,1.22,-9.67,-0.049999997000000004,0.0,0.0,-0.049999997000000004,0.0,0.0,2,Lying,4
2019-01-20,16:27:52,3.77,1.22,-9.67,-0.12,0.0,-0.04,-0.12,0.0,-0.04,2,Lying,4
2019-01-20,16:27:52,3.05,1.05,-9.54,-0.12,0.0,-0.04,-0.12,0.0,-0.04,2,Lying,4
2019-01-20,16:27:52,3.05,1.05,-9.54,-0.11,0.02,-0.22999999,-0.11,0.02,-0.22999999,2,Lying,4
2019-01-20,16:27:52,2.81,1.11,-9.34,-0.12,0.0,-0.08,-0.12,0.0,-0.08,2,Lying,4
2019-01-20,16:27:52,2.81,1.11,-9.34,-0.12,0.0,-0.08,-0.12,0.0,-0.08,2,Lying,4
2019-01-20,16:27:52,3.06,1.14,-9.58,-0.12,0.0,-0.08,-0.12,0.0,-0.08,2,Lying,4
2019-01-20,16:27:52,3.06,1.14,-9.58,0.0,0.0,-0.04,0.0,0.0,-0.04,2,Lying,4
2019-01-20,16:27:52,3.12,1.04,-9.68,0.0,0.0,-0.04,0.0,0.0,-0.04,2,Lying,4
2019-01-20,16:27:52,3.12,1.04,-9.68,0.03,0.0,0.0,0.03,0.0,0.0,2,Lying,4
2019-01-20,16:27:52,3.2099998,1.09,-9.5,0.03,0.0,0.0,0.03,0.0,0.0,2,Lying,4
2019-01-20,16:27:52,3.2099998,1.09,-9.5,0.01,0.0,0.0,0.01,0.0,0.0,2,Lying,4
2019-01-20,16:27:52,3.1999998,1.0799999,-9.59,0.01,0.0,0.0,0.01,0.0,0.0,2,Lying,4
2019-01-20,16:27:52,3.1999998,1.0799999,-9.59,0.04,0.01,0.0,0.04,0.01,0.0,2,Lying,4
2019-01-20,16:27:52,3.1699998,1.06,-9.65,0.04,0.01,0.0,0.04,0.01,0.0,2,Lying,4
2019-01-20,16:27:52,3.1699998,1.06,-9.65,0.02,0.01,0.0,0.02,0.01,0.0,2,Lying,4
2019-01-20,16:27:52,3.1899998,1.1,-9.54,0.02,0.01,0.0,0.02,0.01,0.0,2,Lying,4
2019-01-20,16:27:52,3.1899998,1.1,-9.54,0.0,0.01,0.0,0.0,0.01,0.0,2,Lying,4
2019-01-20,16:27:52,3.25,1.05,-9.53,0.0,0.01,0.0,0.0,0.01,0.0,2,Lying,4
2019-01-20,16:27:52,3.25,1.05,-9.53,0.01,0.01,0.0,0.01,0.01,0.0,2,Lying,4
2019-01-20,16:27:52,3.1999998,1.06,-9.91,0.01,0.01,0.0,0.01,0.01,0.0,2,Lying,4
2019-01-20,16:27:52,3.1999998,1.06,-9.91,0.02,0.01,0.0,0.02,0.01,0.0,2,Lying,4
2019-01-20,16:27:52,3.1899998,1.1,-9.49,0.02,0.01,0.0,0.02,0.01,0.0,2,Lying,4
2019-01-20,16:27:52,3.1899998,1.1,-9.49,-0.03,0.0,0.0,-0.03,0.0,0.0,2,Lying,4
2019-01-20,16:27:52,3.2199998,1.14,-9.64,-0.03,0.0,0.0,-0.03,0.0,0.0,2,Lying,4
2019-01-20,16:27:52,3.2199998,1.14,-9.64,0.0,0.0,0.0,0.0,0.0,0.0,2,Lying,4
2019-01-20,16:27:52,3.2199998,1.09,-9.5,0.0,0.0,0.0,0.0,0.0,0.0,2,Lying,4
2019-01-20,16:27:52,3.2199998,1.09,-9.5,-0.01,0.0,0.0,-0.01,0.0,0.0,2,Lying,4
2019-01-20,16:27:52,3.2099998,1.09,-9.54,-0.01,0.0,0.0,-0.01,0.0,0.0,2,Lying,4
2019-01-20,16:27:52,3.2099998,1.09,-9.54,0.01,0.0,0.0,0.01,0.0,0.0,2,Lying,4
2019-01-20,16:27:52,3.25,1.11,-9.56,0.01,0.0,0.0,0.01,0.0,0.0,2,Lying,4
2019-01-20,16:27:52,3.25,1.11,-9.56,0.0,0.0,0.0,0.0,0.0,0.0,2,Lying,4
2019-01-20,16:27:52,3.2199998,1.11,-9.72,0.0,0.0,0.0,0.0,0.0,0.0,2,Lying,4
2019-01-20,16:27:52,3.2199998,1.11,-9.72,0.0,0.0,0.0,0.0,0.0,0.0,2,Lying,4
2019-01-20,16:27:52,3.24,1.09,-9.62,0.0,0.0,0.0,0.0,0.0,0.0,2,Lying,4
2019-01-20,16:27:52,3.24,1.09,-9.62,-0.02,0.01,0.0,-0.02,0.01,0.0,2,Lying,4
2019-01-20,16:27:52,3.2299998,1.09,-9.51,-0.02,0.01,0.0,-0.02,0.01,0.0,2,Lying,4
2019-01-20,16:27:52,3.2299998,1.09,-9.51,-0.02,0.0,0.0,-0.02,0.0,0.0,2,Lying,4
2019-01-20,16:27:52,3.1899998,1.1,-9.65,-0.02,0.0,0.0,-0.02,0.0,0.0,2,Lying,4
2019-01-20,16:27:52,3.1899998,1.1,-9.65,0.0,0.0,0.0,0.0,0.0,0.0,2,Lying,4
2019-01-20,16:27:52,3.2199998,1.09,-9.72,0.0,0.0,0.0,0.0,0.0,0.0,2,Lying,4
2019-01-20,16:27:52,3.2199998,1.09,-9.72,0.0,0.0,0.0,0.0,0.0,0.0,2,Lying,4
2019-01-20,16:27:52,3.24,1.03,-10.6,0.0,0.0,0.0,0.0,0.0,0.0,2,Lying,4
2019-01-20,16:27:53,3.24,1.03,-10.6,-0.06,0.0,0.0,-0.06,0.0,0.0,2,Lying,4
2019-01-20,16:27:53,3.1799998,1.22,-9.37,-0.06,0.0,0.0,-0.06,0.0,0.0,2,Lying,4
2019-01-20,16:27:53,3.1799998,1.22,-9.37,-0.03,-0.01,0.0,-0.03,-0.01,0.0,2,Lying,4
2019-01-20,16:27:53,3.27,1.22,-9.59,-0.03,-0.01,0.0,-0.03,-0.01,0.0,2,Lying,4
2019-01-20,16:27:53,3.27,1.22,-9.59,0.0,0.02,0.0,0.0,0.02,0.0,2,Lying,4
2019-01-20,16:27:53,3.25,1.18,-9.49,0.0,0.02,0.0,0.0,0.02,0.0,2,Lying,4
2019-01-20,16:27:53,3.25,1.18,-9.49,-0.02,0.0,0.0,-0.02,0.0,0.0,2,Lying,4
2019-01-20,16:27:53,3.25,1.17,-9.6,-0.02,0.0,0.0,-0.02,0.0,0.0,2,Lying,4
2019-01-20,16:27:53,3.25,1.17,-9.6,0.0,0.0,0.0,0.0,0.0,0.0,2,Lying,4
2019-01-20,16:27:53,3.26,1.25,-9.61,0.0,0.0,0.0,0.0,0.0,0.0,2,Lying,4
2019-01-20,16:27:53,3.26,1.25,-9.61,-0.03,0.0,0.0,-0.03,0.0,0.0,2,Lying,4
2019-01-20,16:27:53,3.24,1.25,-9.54,-0.03,0.0,0.0,-0.03,0.0,0.0,2,Lying,4
2019-01-20,16:27:53,3.24,1.25,-9.54,-0.03,0.01,0.0,-0.03,0.01,0.0,2,Lying,4
2019-01-20,16:27:53,3.26,1.23,-9.56,-0.03,0.01,0.0,-0.03,0.01,0.0,2,Lying,4
2019-01-20,16:27:53,3.26,1.23,-9.56,-0.01,0.01,0.0,-0.01,0.01,0.0,2,Lying,4
2019-01-20,16:27:53,3.29,1.26,-9.54,-0.01,0.01,0.0,-0.01,0.01,0.0,2,Lying,4
2019-01-20,16:27:53,3.29,1.26,-9.54,-0.06,0.01,0.0,-0.06,0.01,0.0,2,Lying,4
2019-01-20,16:27:53,3.2199998,1.26,-9.36,-0.06,0.01,0.0,-0.06,0.01,0.0,2,Lying,4
2019-01-20,16:27:53,3.2199998,1.26,-9.36,-0.08,0.0,0.0,-0.08,0.0,0.0,2,Lying,4
2019-01-20,16:27:53,3.25,1.29,-9.65,-0.08,0.0,0.0,-0.08,0.0,0.0,2,Lying,4
2019-01-20,16:27:53,3.25,1.29,-9.65,-0.04,0.03,0.0,-0.04,0.03,0.0,2,Lying,4
2019-01-20,16:27:53,3.3,1.3199999,-9.61,-0.04,0.03,0.0,-0.04,0.03,0.0,2,Lying,4
2019-01-20,16:27:53,3.3,1.3199999,-9.61,-0.12,0.04,0.0,-0.12,0.04,0.0,2,Lying,4
2019-01-20,16:27:53,3.3,1.6199999,-9.22,-0.12,0.04,0.0,-0.12,0.04,0.0,2,Lying,4
2019-01-20,16:27:53,3.3,1.6199999,-9.22,-0.14999999,0.02,0.0,-0.14999999,0.02,0.0,2,Lying,4
2019-01-20,16:27:53,3.32,1.4599999,-9.56,-0.14999999,0.02,0.0,-0.14999999,0.02,0.0,2,Lying,4
2019-01-20,16:27:53,3.32,1.4599999,-9.56,-0.03,0.0,0.0,-0.03,0.0,0.0,2,Lying,4
2019-01-20,16:27:53,3.28,1.41,-9.35,-0.03,0.0,0.0,-0.03,0.0,0.0,2,Lying,4
2019-01-20,16:27:53,3.28,1.41,-9.35,-0.02,0.0,0.0,-0.02,0.0,0.0,2,Lying,4
2019-01-20,16:27:53,3.33,1.37,-9.53,-0.02,0.0,0.0,-0.02,0.0,0.0,2,Lying,4
2019-01-20,16:27:53,3.33,1.37,-9.53,0.03,0.0,0.0,0.03,0.0,0.0,2,Lying,4
2019-01-20,16:27:53,3.28,1.42,-9.63,0.03,0.0,0.0,0.03,0.0,0.0,2,Lying,4
2019-01-20,16:27:53,3.28,1.42,-9.63,0.01,0.0,0.0,0.01,0.0,0.0,2,Lying,4
2019-01-20,16:27:53,3.25,1.4399998999999999,-9.45,0.01,0.0,0.0,0.01,0.0,0.0,2,Lying,4
2019-01-20,16:27:53,3.25,1.4399998999999999,-9.45,-0.03,0.0,0.0,-0.03,0.0,0.0,2,Lying,4
2019-01-20,16:27:53,3.28,1.4499999,-9.43,-0.03,0.0,0.0,-0.03,0.0,0.0,2,Lying,4
2019-01-20,16:27:53,3.28,1.4499999,-9.43,-0.03,0.01,0.0,-0.03,0.01,0.0,2,Lying,4
2019-01-20,16:27:53,3.28,1.4499999,-9.58,-0.03,0.01,0.0,-0.03,0.01,0.0,2,Lying,4
2019-01-20,16:27:53,3.28,1.4499999,-9.58,0.01,0.0,0.0,0.01,0.0,0.0,2,Lying,4
2019-01-20,16:27:53,3.3,1.42,-9.519999499999999,0.01,0.0,0.0,0.01,0.0,0.0,2,Lying,4
2019-01-20,16:27:53,3.3,1.42,-9.519999499999999,0.0,0.0,0.0,0.0,0.0,0.0,2,Lying,4
2019-01-20,16:27:53,3.26,1.42,-9.33,0.0,0.0,0.0,0.0,0.0,0.0,2,Lying,4
2019-01-20,16:27:53,3.26,1.42,-9.33,-0.02,0.0,0.0,-0.02,0.0,0.0,2,Lying,4
2019-01-20,16:27:53,3.26,1.41,-9.37,-0.02,0.0,0.0,-0.02,0.0,0.0,2,Lying,4
2019-01-20,16:27:53,3.26,1.41,-9.37,0.0,0.0,0.0,0.0,0.0,0.0,2,Lying,4
2019-01-20,16:27:53,3.31,1.41,-9.54,0.0,0.0,0.0,0.0,0.0,0.0,2,Lying,4
2019-01-20,16:27:54,3.31,1.41,-9.54,0.01,0.0,0.0,0.01,0.0,0.0,2,Lying,4
2019-01-20,16:27:54,3.29,1.39,-9.45,0.01,0.0,0.0,0.01,0.0,0.0,2,Lying,4
2019-01-20,16:27:54,3.29,1.39,-9.45,0.01,0.0,0.0,0.01,0.0,0.0,2,Lying,4
2019-01-20,16:27:54,3.27,1.39,-9.42,0.01,0.0,0.0,0.01,0.0,0.0,2,Lying,4
2019-01-20,16:27:54,3.27,1.39,-9.42,0.04,0.0,0.0,0.04,0.0,0.0,2,Lying,4
2019-01-20,16:27:54,3.24,1.3199999,-9.55,0.04,0.0,0.0,0.04,0.0,0.0,2,Lying,4
2019-01-20,16:27:54,3.24,1.3199999,-9.55,0.07,0.0,0.0,0.07,0.0,0.0,2,Lying,4
2019-01-20,16:27:54,3.29,1.35,-9.66,0.07,0.0,0.0,0.07,0.0,0.0,2,Lying,4
2019-01-20,16:27:54,3.29,1.35,-9.66,0.07,0.0,0.0,0.07,0.0,0.0,2,Lying,4
2019-01-20,16:27:54,3.27,1.37,-9.53,0.07,0.0,0.0,0.07,0.0,0.0,2,Lying,4
2019-01-20,16:27:54,3.27,1.37,-9.53,0.0,0.01,0.0,0.0,0.01,0.0,2,Lying,4
2019-01-20,16:27:54,3.29,1.34,-9.41,0.0,0.01,0.0,0.0,0.01,0.0,2,Lying,4
2019-01-20,16:27:54,3.29,1.34,-9.41,0.0,0.0,0.0,0.0,0.0,0.0,2,Lying,4
2019-01-20,16:27:54,4.4500003,1.43,-9.33,0.0,0.0,0.0,0.0,0.0,0.0,2,Lying,4
2019-01-20,16:27:54,4.4500003,1.43,-9.33,0.02,0.0,0.0,0.02,0.0,0.0,2,Lying,4
2019-01-20,16:27:54,3.25,1.35,-9.46,0.02,0.0,0.0,0.02,0.0,0.0,2,Lying,4
2019-01-20,16:27:54,3.25,1.35,-9.46,0.02,0.01,0.0,0.02,0.01,0.0,2,Lying,4
2019-01-20,16:27:54,3.31,1.31,-9.62,0.04,0.01,0.0,0.04,0.01,0.0,2,Lying,4
2019-01-20,16:27:54,3.31,1.31,-9.62,0.04,0.01,0.0,0.04,0.01,0.0,2,Lying,4
2019-01-20,16:27:54,3.29,1.31,-9.51,0.04,0.01,0.0,0.04,0.01,0.0,2,Lying,4
2019-01-20,16:27:54,3.29,1.31,-9.51,0.03,0.0,0.0,0.03,0.0,0.0,2,Lying,4
2019-01-20,16:27:54,3.31,1.28,-9.56,0.03,0.0,0.0,0.03,0.0,0.0,2,Lying,4
2019-01-20,16:27:54,3.31,1.28,-9.56,0.03,0.01,0.0,0.03,0.01,0.0,2,Lying,4
2019-01-20,16:27:54,3.28,1.3,-9.55,0.03,0.01,0.0,0.03,0.01,0.0,2,Lying,4
2019-01-20,16:27:54,3.28,1.3,-9.55,0.049999997000000004,0.0,0.0,0.049999997000000004,0.0,0.0,2,Lying,4
2019-01-20,16:27:54,3.31,1.23,-9.53,0.049999997000000004,0.0,0.0,0.049999997000000004,0.0,0.0,2,Lying,4
2019-01-20,16:27:54,3.31,1.23,-9.53,0.049999997000000004,0.0,0.0,0.049999997000000004,0.0,0.0,2,Lying,4
2019-01-20,16:27:54,3.27,1.23,-9.53,0.049999997000000004,0.0,0.0,0.049999997000000004,0.0,0.0,2,Lying,4
2019-01-20,16:27:54,3.27,1.23,-9.53,0.03,0.0,0.0,0.03,0.0,0.0,2,Lying,4
2019-01-20,16:27:54,3.32,1.22,-9.62,0.03,0.0,0.0,0.03,0.0,0.0,2,Lying,4
2019-01-20,16:27:54,3.32,1.22,-9.62,0.02,0.01,0.0,0.02,0.01,0.0,2,Lying,4
2019-01-20,16:27:54,3.29,1.1999999,-9.53,0.02,0.01,0.0,0.02,0.01,0.0,2,Lying,4
2019-01-20,16:27:54,3.29,1.1999999,-9.53,0.0,0.0,0.0,0.0,0.0,0.0,2,Lying,4
2019-01-20,16:27:54,3.34,1.24,-9.54,0.0,0.0,0.0,0.0,0.0,0.0,2,Lying,4
2019-01-20,16:27:54,3.34,1.24,-9.54,0.0,0.0,0.0,0.0,0.0,0.0,2,Lying,4
2019-01-20,16:27:54,3.29,1.21,-9.51,0.0,0.0,0.0,0.0,0.0,0.0,2,Lying,4
2019-01-20,16:27:54,3.29,1.21,-9.51,0.0,0.0,0.0,0.0,0.0,0.0,2,Lying,4
2019-01-20,16:27:54,3.31,1.24,-9.47,0.0,0.0,0.0,0.0,0.0,0.0,2,Lying,4
2019-01-20,16:27:54,3.31,1.24,-9.47,0.0,0.0,0.0,0.0,0.0,0.0,2,Lying,4
2019-01-20,16:27:54,3.33,1.21,-9.51,0.0,0.0,0.0,0.0,0.0,0.0,2,Lying,4
2019-01-20,16:27:54,3.33,1.21,-9.51,0.02,0.0,0.0,0.02,0.0,0.0,2,Lying,4
2019-01-20,16:27:54,3.3,1.1899998999999999,-9.54,0.02,0.0,0.0,0.02,0.0,0.0,2,Lying,4
2019-01-20,16:27:54,3.3,1.1899998999999999,-9.54,0.02,0.0,0.0,0.02,0.0,0.0,2,Lying,4
2019-01-20,16:27:54,3.3,1.21,-9.61,0.02,0.0,0.0,0.02,0.0,0.0,2,Lying,4
2019-01-20,16:27:54,3.3,1.21,-9.61,0.01,0.0,0.0,0.01,0.0,0.0,2,Lying,4
2019-01-20,16:27:54,3.28,1.21,-9.53,0.01,0.0,0.0,0.01,0.0,0.0,2,Lying,4
2019-01-20,16:27:55,3.28,1.21,-9.53,0.0,0.0,0.0,0.0,0.0,0.0,2,Lying,4
2019-01-20,16:27:55,3.32,1.24,-9.54,0.0,0.0,0.0,0.0,0.0,0.0,2,Lying,4
2019-01-20,16:27:55,3.32,1.24,-9.54,0.0,0.0,0.0,0.0,0.0,0.0,2,Lying,4
2019-01-20,16:27:55,3.33,1.18,-9.53,0.0,0.0,0.0,0.0,0.0,0.0,2,Lying,4
2019-01-20,16:27:55,3.33,1.18,-9.53,0.0,0.0,0.0,0.0,0.0,0.0,2,Lying,4
2019-01-20,16:27:55,3.34,1.1899998999999999,-9.54,0.0,0.0,0.0,0.0,0.0,0.0,2,Lying,4
2019-01-20,16:27:55,3.34,1.1899998999999999,-9.54,0.0,0.0,0.0,0.0,0.0,0.0,2,Lying,4
2019-01-20,16:27:55,3.3,1.17,-9.48,0.0,0.0,0.0,0.0,0.0,0.0,2,Lying,4
2019-01-20,16:27:55,3.3,1.17,-9.48,0.0,0.0,0.0,0.0,0.0,0.0,2,Lying,4
2019-01-20,16:27:55,3.3,1.21,-9.55,0.0,0.0,0.0,0.0,0.0,0.0,2,Lying,4
2019-01-20,16:27:55,3.3,1.21,-9.55,0.0,0.0,0.0,0.0,0.0,0.0,2,Lying,4
2019-01-20,16:27:55,3.35,1.17,-9.48,0.0,0.0,0.0,0.0,0.0,0.0,2,Lying,4
2019-01-20,16:27:55,3.35,1.17,-9.48,0.0,0.0,0.0,0.0,0.0,0.0,2,Lying,4
2019-01-20,16:27:55,3.33,1.1899998999999999,-9.51,0.0,0.0,0.0,0.0,0.0,0.0,2,Lying,4
2019-01-20,16:27:55,3.33,1.1899998999999999,-9.51,0.0,0.0,0.0,0.0,0.0,0.0,2,Lying,4
2019-01-20,16:27:55,3.29,1.16,-9.57,0.0,0.0,0.0,0.0,0.0,0.0,2,Lying,4
2019-01-20,16:27:55,3.29,1.16,-9.57,0.0,0.0,0.0,0.0,0.0,0.0,2,Lying,4
2019-01-20,16:27:55,3.37,1.1899998999999999,-9.47,0.0,0.0,0.0,0.0,0.0,0.0,2,Lying,4
2019-01-20,16:27:55,3.37,1.1899998999999999,-9.47,0.01,0.0,0.0,0.01,0.0,0.0,2,Lying,4
2019-01-20,16:27:55,3.33,1.17,-9.58,0.01,0.0,0.0,0.01,0.0,0.0,2,Lying,4
2019-01-20,16:27:55,3.33,1.17,-9.58,0.01,0.0,0.0,0.01,0.0,0.0,2,Lying,4
2019-01-20,16:27:55,3.33,1.16,-9.57,0.01,0.0,0.0,0.01,0.0,0.0,2,Lying,4
2019-01-20,16:27:55,3.33,1.16,-9.57,0.01,0.0,0.0,0.01,0.0,0.0,2,Lying,4
2019-01-20,16:27:55,3.34,1.16,-9.61,0.01,0.0,0.0,0.01,0.0,0.0,2,Lying,4
2019-01-20,16:27:55,3.34,1.16,-9.61,0.01,0.0,0.0,0.01,0.0,0.0,2,Lying,4
2019-01-20,16:27:55,3.28,1.17,-9.55,0.01,0.0,0.0,0.01,0.0,0.0,2,Lying,4
2019-01-20,16:27:55,3.28,1.17,-9.55,0.0,0.0,0.0,0.0,0.0,0.0,2,Lying,4
2019-01-20,16:27:55,3.28,1.1899998999999999,-9.51,0.0,0.0,0.0,0.0,0.0,0.0,2,Lying,4
2019-01-20,16:27:55,3.28,1.1899998999999999,-9.51,0.0,0.0,0.0,0.0,0.0,0.0,2,Lying,4
2019-01-20,16:27:55,3.3,1.16,-9.59,0.0,0.0,0.0,0.0,0.0,0.0,2,Lying,4
2019-01-20,16:27:55,3.3,1.16,-9.59,0.0,0.0,0.0,0.0,0.0,0.0,2,Lying,4
2019-01-20,16:27:55,3.32,1.17,-9.55,0.0,0.0,0.0,0.0,0.0,0.0,2,Lying,4
2019-01-20,16:27:55,3.32,1.17,-9.55,0.0,0.0,0.0,0.0,0.0,0.0,2,Lying,4
2019-01-20,16:27:55,3.31,1.18,-9.56,0.0,0.0,0.0,0.0,0.0,0.0,2,Lying,4
2019-01-20,16:27:55,3.31,1.18,-9.56,0.0,0.0,0.0,0.0,0.0,0.0,2,Lying,4
2019-01-20,16:27:55,3.29,1.18,-9.49,0.0,0.0,0.0,0.0,0.0,0.0,2,Lying,4
2019-01-20,16:27:55,3.29,1.18,-9.49,0.01,0.0,0.0,0.01,0.0,0.0,2,Lying,4
2019-01-20,16:27:55,3.29,1.13,-9.56,0.01,0.0,0.0,0.01,0.0,0.0,2,Lying,4
2019-01-20,16:27:55,3.29,1.13,-9.56,0.02,0.0,0.0,0.02,0.0,0.0,2,Lying,4
2019-01-20,16:27:55,3.32,1.12,-9.57,0.02,0.0,0.0,0.02,0.0,0.0,2,Lying,4
2019-01-20,16:27:55,3.32,1.12,-9.57,0.01,0.0,0.0,0.01,0.0,0.0,2,Lying,4
2019-01-20,16:27:55,3.32,1.16,-9.58,0.01,0.0,0.0,0.01,0.0,0.0,2,Lying,4
2019-01-20,16:27:55,3.32,1.16,-9.58,0.01,0.0,0.0,0.01,0.0,0.0,2,Lying,4
2019-01-20,16:27:55,3.32,1.14,-9.53,0.01,0.0,0.0,0.01,0.0,0.0,2,Lying,4
2019-01-20,16:27:55,3.32,1.14,-9.53,0.0,0.0,0.0,0.0,0.0,0.0,2,Lying,4
2019-01-20,16:27:55,3.28,1.11,-9.61,0.0,0.0,0.0,0.0,0.0,0.0,2,Lying,4
2019-01-20,16:27:55,3.28,1.11,-9.61,0.0,0.0,0.0,0.0,0.0,0.0,2,Lying,4
2019-01-20,16:27:55,3.32,1.13,-9.54,0.0,0.0,0.0,0.0,0.0,0.0,2,Lying,4
2019-01-20,16:27:56,3.32,1.13,-9.54,0.0,0.0,0.0,0.0,0.0,0.0,2,Lying,4
2019-01-20,16:27:56,3.29,1.17,-9.63,0.0,0.0,0.0,0.0,0.0,0.0,2,Lying,4
2019-01-20,16:27:56,3.29,1.17,-9.63,0.0,0.0,0.0,0.0,0.0,0.0,2,Lying,4
2019-01-20,16:27:56,3.31,1.15,-9.57,0.0,0.0,0.0,0.0,0.0,0.0,2,Lying,4
2019-01-20,16:27:56,3.31,1.15,-9.57,0.0,0.0,0.0,0.0,0.0,0.0,2,Lying,4
2019-01-20,16:27:56,3.29,1.14,-9.56,0.0,0.0,0.0,0.0,0.0,0.0,2,Lying,4
2019-01-20,16:27:56,3.29,1.14,-9.56,0.0,0.0,0.0,0.0,0.0,0.0,2,Lying,4
2019-01-20,16:27:56,3.34,1.11,-9.54,0.0,0.0,0.0,0.0,0.0,0.0,2,Lying,4
2019-01-20,16:27:56,3.34,1.11,-9.54,0.0,0.0,0.0,0.0,0.0,0.0,2,Lying,4
2019-01-20,16:27:56,3.32,1.13,-9.56,0.0,0.0,0.0,0.0,0.0,0.0,2,Lying,4
2019-01-20,16:27:56,3.32,1.13,-9.56,0.0,0.0,0.0,0.0,0.0,0.0,2,Lying,4
2019-01-20,16:27:56,3.32,1.1,-9.5,0.0,0.0,0.0,0.0,0.0,0.0,2,Lying,4
2019-01-20,16:27:56,3.32,1.1,-9.5,0.0,0.0,0.0,0.0,0.0,0.0,2,Lying,4
2019-01-20,16:27:56,3.29,1.16,-9.56,0.0,0.0,0.0,0.0,0.0,0.0,2,Lying,4
2019-01-20,16:27:56,3.29,1.16,-9.56,0.0,0.0,0.0,0.0,0.0,0.0,2,Lying,4
2019-01-20,16:27:56,3.28,1.13,-9.56,0.0,0.0,0.0,0.0,0.0,0.0,2,Lying,4
2019-01-20,16:27:56,3.28,1.13,-9.56,0.0,0.0,0.0,0.0,0.0,0.0,2,Lying,4
2019-01-20,16:27:56,3.32,1.13,-9.58,0.0,0.0,0.0,0.0,0.0,0.0,2,Lying,4
2019-01-20,16:27:56,3.32,1.13,-9.58,0.0,0.0,0.0,0.0,0.0,0.0,2,Lying,4
2019-01-20,16:27:56,3.29,1.14,-9.6,0.0,0.0,0.0,0.0,0.0,0.0,2,Lying,4
2019-01-20,16:27:56,3.29,1.14,-9.6,0.0,0.0,0.0,0.0,0.0,0.0,2,Lying,4
2019-01-20,16:27:56,3.29,1.14,-9.54,0.0,0.0,0.0,0.0,0.0,0.0,2,Lying,4
2019-01-20,16:27:56,3.29,1.14,-9.54,0.0,0.0,0.0,0.0,0.0,0.0,2,Lying,4
2019-01-20,16:27:56,3.28,1.14,-9.54,0.0,0.0,0.0,0.0,0.0,0.0,2,Lying,4
2019-01-20,16:27:56,3.28,1.14,-9.54,0.0,0.0,0.0,0.0,0.0,0.0,2,Lying,4
2019-01-20,16:27:56,3.27,1.0799999,-9.51,0.0,0.0,0.0,0.0,0.0,0.0,2,Lying,4
2019-01-20,16:27:56,3.27,1.0799999,-9.51,0.0,0.0,0.0,0.0,0.0,0.0,2,Lying,4
2019-01-20,16:27:56,3.29,1.13,-9.56,0.0,0.0,0.0,0.0,0.0,0.0,2,Lying,4
2019-01-20,16:27:56,3.29,1.13,-9.56,0.0,0.0,0.0,0.0,0.0,0.0,2,Lying,4
2019-01-20,16:27:56,3.32,1.12,-9.51,0.0,0.0,0.0,0.0,0.0,0.0,2,Lying,4
2019-01-20,16:27:56,3.32,1.12,-9.51,0.0,0.0,0.0,0.0,0.0,0.0,2,Lying,4
2019-01-20,16:27:56,3.3,1.17,-9.64,0.0,0.0,0.0,0.0,0.0,0.0,2,Lying,4
2019-01-20,16:27:56,3.3,1.17,-9.64,0.01,0.0,0.0,0.01,0.0,0.0,2,Lying,4
2019-01-20,16:27:56,3.35,1.1,-9.49,0.01,0.0,0.0,0.01,0.0,0.0,2,Lying,4
2019-01-20,16:27:56,3.35,1.1,-9.49,0.0,0.0,0.0,0.0,0.0,0.0,2,Lying,4
2019-01-20,16:27:56,3.31,1.1,-9.61,0.0,0.0,0.0,0.0,0.0,0.0,2,Lying,4
2019-01-20,16:27:56,3.31,1.1,-9.61,0.0,0.0,0.0,0.0,0.0,0.0,2,Lying,4
2019-01-20,16:27:56,3.31,1.13,-9.519999499999999,0.0,0.0,0.0,0.0,0.0,0.0,2,Lying,4
2019-01-20,16:27:56,3.31,1.13,-9.519999499999999,0.0,0.0,0.0,0.0,0.0,0.0,2,Lying,4
2019-01-20,16:27:56,3.33,1.12,-9.59,0.0,0.0,0.0,0.0,0.0,0.0,2,Lying,4
2019-01-20,16:27:56,3.33,1.12,-9.59,0.0,0.0,0.0,0.0,0.0,0.0,2,Lying,4
2019-01-20,16:27:56,3.33,1.11,-9.57,0.0,0.0,0.0,0.0,0.0,0.0,2,Lying,4
2019-01-20,16:27:56,3.33,1.11,-9.57,0.0,0.0,0.0,0.0,0.0,0.0,2,Lying,4
2019-01-20,16:27:56,3.31,1.1,-9.57,0.0,0.0,0.0,0.0,0.0,0.0,2,Lying,4
2019-01-20,16:27:56,3.31,1.1,-9.57,0.0,0.0,0.0,0.0,0.0,0.0,2,Lying,4
2019-01-20,16:27:57,3.34,1.11,-9.64,0.0,0.0,0.0,0.0,0.0,0.0,2,Lying,4
2019-01-20,16:27:57,3.34,1.11,-9.64,0.0,0.0,0.0,0.0,0.0,0.0,2,Lying,4
2019-01-20,16:27:57,3.31,1.11,-9.53,0.0,0.0,0.0,0.0,0.0,0.0,2,Lying,4
2019-01-20,16:27:57,3.31,1.11,-9.53,0.0,0.0,0.0,0.0,0.0,0.0,2,Lying,4
2019-01-20,16:27:57,3.33,1.13,-9.54,0.0,0.0,0.0,0.0,0.0,0.0,2,Lying,4
2019-01-20,16:27:57,3.33,1.13,-9.54,0.0,0.0,0.0,0.0,0.0,0.0,2,Lying,4
2019-01-20,16:27:57,3.34,1.13,-9.57,0.0,0.0,0.0,0.0,0.0,0.0,2,Lying,4
2019-01-20,16:27:57,3.34,1.13,-9.57,0.0,0.0,0.0,0.0,0.0,0.0,2,Lying,4
2019-01-20,16:27:57,3.34,1.13,-9.58,0.0,0.0,0.0,0.0,0.0,0.0,2,Lying,4
2019-01-20,16:27:57,3.34,1.13,-9.58,0.0,0.0,0.0,0.0,0.0,0.0,2,Lying,4
2019-01-20,16:27:57,3.29,1.12,-9.58,0.0,0.0,0.0,0.0,0.0,0.0,2,Lying,4
2019-01-20,16:27:57,3.29,1.12,-9.58,0.0,0.0,0.0,0.0,0.0,0.0,2,Lying,4
2019-01-20,16:27:57,3.33,1.1,-9.55,0.0,0.0,0.0,0.0,0.0,0.0,2,Lying,4
2019-01-20,16:27:57,3.33,1.1,-9.55,0.0,0.0,0.0,0.0,0.0,0.0,2,Lying,4
2019-01-20,16:27:57,3.32,1.12,-9.56,0.0,0.0,0.0,0.0,0.0,0.0,2,Lying,4
2019-01-20,16:27:57,3.32,1.12,-9.56,0.0,0.0,0.0,0.0,0.0,0.0,2,Lying,4
2019-01-20,16:27:57,3.29,1.12,-9.6,0.0,0.0,0.0,0.0,0.0,0.0,2,Lying,4
2019-01-20,16:27:57,3.29,1.12,-9.6,0.0,0.0,0.0,0.0,0.0,0.0,2,Lying,4
2019-01-20,16:27:57,3.33,1.09,-9.46,0.0,0.0,0.0,0.0,0.0,0.0,2,Lying,4
2019-01-20,16:27:57,3.33,1.09,-9.46,0.0,0.0,0.0,0.0,0.0,0.0,2,Lying,4
2019-01-20,16:27:57,3.32,1.09,-9.62,0.0,0.0,0.0,0.0,0.0,0.0,2,Lying,4
2019-01-20,16:27:57,3.32,1.09,-9.62,0.0,0.0,0.0,0.0,0.0,0.0,2,Lying,4
2019-01-20,16:27:57,3.29,1.13,-9.59,0.0,0.0,0.0,0.0,0.0,0.0,2,Lying,4
2019-01-20,16:27:57,3.29,1.13,-9.59,0.0,0.0,0.0,0.0,0.0,0.0,2,Lying,4
2019-01-20,16:27:57,3.28,1.12,-9.56,0.0,0.0,0.0,0.0,0.0,0.0,2,Lying,4
2019-01-20,16:27:57,3.28,1.12,-9.56,0.0,0.0,0.0,0.0,0.0,0.0,2,Lying,4
2019-01-20,16:27:57,3.31,1.11,-9.6,0.0,0.0,0.0,0.0,0.0,0.0,2,Lying,4
2019-01-20,16:27:57,3.31,1.11,-9.6,0.0,0.0,0.0,0.0,0.0,0.0,2,Lying,4
2019-01-20,16:27:57,3.3,1.15,-9.55,0.0,0.0,0.0,0.0,0.0,0.0,2,Lying,4
2019-01-20,16:27:57,3.3,1.15,-9.55,0.0,0.0,0.0,0.0,0.0,0.0,2,Lying,4
2019-01-20,16:27:57,3.29,1.1,-9.58,0.0,0.0,0.0,0.0,0.0,0.0,2,Lying,4
2019-01-20,16:27:57,3.29,1.1,-9.58,0.0,0.0,0.0,0.0,0.0,0.0,2,Lying,4
2019-01-20,16:27:57,3.31,1.0699999,-9.55,0.0,0.0,0.0,0.0,0.0,0.0,2,Lying,4
2019-01-20,16:27:57,3.31,1.0699999,-9.55,0.0,0.0,0.0,0.0,0.0,0.0,2,Lying,4
2019-01-20,16:27:57,3.32,1.0799999,-9.55,0.0,0.0,0.0,0.0,0.0,0.0,2,Lying,4
2019-01-20,16:27:57,3.32,1.0799999,-9.55,0.0,0.0,0.0,0.0,0.0,0.0,2,Lying,4
2019-01-20,16:27:57,3.31,1.15,-9.58,0.0,0.0,0.0,0.0,0.0,0.0,2,Lying,4
2019-01-20,16:27:57,3.31,1.15,-9.58,0.0,0.0,0.0,0.0,0.0,0.0,2,Lying,4
2019-01-20,16:27:57,3.34,1.14,-9.57,0.0,0.0,0.0,0.0,0.0,0.0,2,Lying,4
2019-01-20,16:27:57,3.34,1.14,-9.57,0.0,0.0,0.0,0.0,0.0,0.0,2,Lying,4
2019-01-20,16:27:57,3.3,1.11,-9.54,0.0,0.0,0.0,0.0,0.0,0.0,2,Lying,4
2019-01-20,16:27:57,3.3,1.11,-9.54,0.0,0.0,0.0,0.0,0.0,0.0,2,Lying,4
2019-01-20,16:27:57,3.3,1.15,-9.56,0.0,0.0,0.0,0.0,0.0,0.0,2,Lying,4
2019-01-20,16:27:57,3.3,1.15,-9.56,0.0,0.0,0.0,0.0,0.0,0.0,2,Lying,4
2019-01-20,16:27:57,3.33,1.13,-9.56,0.0,0.0,0.0,0.0,0.0,0.0,2,Lying,4
2019-01-20,16:27:57,3.33,1.13,-9.56,0.0,0.0,0.0,0.0,0.0,0.0,2,Lying,4
2019-01-20,16:27:58,3.29,1.1,-9.6,0.0,0.0,0.0,0.0,0.0,0.0,2,Lying,4
2019-01-20,16:27:58,3.29,1.1,-9.6,0.0,0.0,0.0,0.0,0.0,0.0,2,Lying,4
2019-01-20,16:27:58,3.33,1.09,-9.58,0.0,0.0,0.0,0.0,0.0,0.0,2,Lying,4
2019-01-20,16:27:58,3.33,1.09,-9.58,0.0,0.0,0.0,0.0,0.0,0.0,2,Lying,4
2019-01-20,16:27:58,3.32,1.11,-9.519999499999999,0.0,0.0,0.0,0.0,0.0,0.0,2,Lying,4
2019-01-20,16:27:58,3.32,1.11,-9.519999499999999,0.0,0.0,0.0,0.0,0.0,0.0,2,Lying,4
2019-01-20,16:27:58,3.3,1.1,-9.6,0.0,0.0,0.0,0.0,0.0,0.0,2,Lying,4
2019-01-20,16:27:58,3.3,1.1,-9.6,0.0,0.0,0.0,0.0,0.0,0.0,2,Lying,4
2019-01-20,16:27:58,3.29,1.1,-9.58,0.0,0.0,0.0,0.0,0.0,0.0,2,Lying,4
2019-01-20,16:27:58,3.29,1.1,-9.58,0.0,0.0,0.0,0.0,0.0,0.0,2,Lying,4
2019-01-20,16:27:58,3.36,1.1,-9.58,0.0,0.0,0.0,0.0,0.0,0.0,2,Lying,4
2019-01-20,16:27:58,3.36,1.1,-9.58,0.0,0.0,0.0,0.0,0.0,0.0,2,Lying,4
2019-01-20,16:27:58,3.29,1.1,-9.57,0.0,0.0,0.0,0.0,0.0,0.0,2,Lying,4
2019-01-20,16:27:58,3.29,1.1,-9.57,0.0,0.0,0.0,0.0,0.0,0.0,2,Lying,4
2019-01-20,16:27:58,3.33,1.1,-9.58,0.0,0.0,0.0,0.0,0.0,0.0,2,Lying,4
2019-01-20,16:27:58,3.33,1.1,-9.58,0.0,0.0,0.0,0.0,0.0,0.0,2,Lying,4
2019-01-20,16:27:58,3.31,1.09,-9.54,0.0,0.0,0.0,0.0,0.0,0.0,2,Lying,4
2019-01-20,16:27:58,3.31,1.09,-9.54,0.0,0.0,0.0,0.0,0.0,0.0,2,Lying,4
2019-01-20,16:27:58,3.3,1.12,-9.56,0.0,0.0,0.0,0.0,0.0,0.0,2,Lying,4
2019-01-20,16:27:58,3.3,1.12,-9.56,0.0,0.0,0.0,0.0,0.0,0.0,2,Lying,4
2019-01-20,16:27:58,3.31,1.1,-9.53,0.0,0.0,0.0,0.0,0.0,0.0,2,Lying,4
2019-01-20,16:27:58,3.31,1.1,-9.53,0.0,0.0,0.0,0.0,0.0,0.0,2,Lying,4
2019-01-20,16:27:58,3.33,1.1,-9.57,0.0,0.0,0.0,0.0,0.0,0.0,2,Lying,4
2019-01-20,16:27:58,3.33,1.1,-9.57,0.0,0.0,0.0,0.0,0.0,0.0,2,Lying,4
2019-01-20,16:27:58,3.33,1.14,-9.57,0.0,0.0,0.0,0.0,0.0,0.0,2,Lying,4
2019-01-20,16:27:58,3.33,1.14,-9.57,0.0,0.0,0.0,0.0,0.0,0.0,2,Lying,4
2019-01-20,16:27:58,3.32,1.0799999,-9.53,0.0,0.0,0.0,0.0,0.0,0.0,2,Lying,4
2019-01-20,16:27:58,3.32,1.0799999,-9.53,0.0,0.0,0.0,0.0,0.0,0.0,2,Lying,4
2019-01-20,16:27:58,3.33,1.1,-9.519999499999999,0.0,0.0,0.0,0.0,0.0,0.0,2,Lying,4
2019-01-20,16:27:58,3.33,1.1,-9.519999499999999,0.0,0.0,0.0,0.0,0.0,0.0,2,Lying,4
2019-01-20,16:27:58,3.27,1.1,-9.58,0.0,0.0,0.0,0.0,0.0,0.0,2,Lying,4
2019-01-20,16:27:58,3.27,1.1,-9.58,0.0,0.0,0.0,0.0,0.0,0.0,2,Lying,4
2019-01-20,16:27:58,3.3,1.1,-9.6,0.0,0.0,0.0,0.0,0.0,0.0,2,Lying,4
2019-01-20,16:27:58,3.3,1.1,-9.6,0.0,0.0,0.0,0.0,0.0,0.0,2,Lying,4
2019-01-20,16:27:58,3.32,1.11,-9.56,0.0,0.0,0.0,0.0,0.0,0.0,2,Lying,4
2019-01-20,16:27:58,3.32,1.11,-9.56,0.0,0.0,0.0,0.0,0.0,0.0,2,Lying,4
2019-01-20,16:27:58,3.33,1.13,-9.54,0.0,0.0,0.0,0.0,0.0,0.0,2,Lying,4
2019-01-20,16:27:58,3.33,1.13,-9.54,0.0,0.0,0.0,0.0,0.0,0.0,2,Lying,4
2019-01-20,16:27:58,3.29,1.13,-9.57,0.0,0.0,0.0,0.0,0.0,0.0,2,Lying,4
2019-01-20,16:27:58,3.29,1.13,-9.57,0.0,0.0,0.0,0.0,0.0,0.0,2,Lying,4
2019-01-20,16:27:58,3.32,1.11,-9.58,0.0,0.0,0.0,0.0,0.0,0.0,2,Lying,4
2019-01-20,16:27:58,3.32,1.11,-9.58,0.0,0.0,0.0,0.0,0.0,0.0,2,Lying,4
2019-01-20,16:27:58,3.33,1.1,-9.54,0.0,0.0,0.0,0.0,0.0,0.0,2,Lying,4
2019-01-20,16:27:58,3.33,1.1,-9.54,0.0,0.0,0.0,0.0,0.0,0.0,2,Lying,4
2019-01-20,16:27:58,3.31,1.11,-9.55,0.0,0.0,0.0,0.0,0.0,0.0,2,Lying,4
2019-01-20,16:27:58,3.31,1.11,-9.55,0.0,0.0,0.0,0.0,0.0,0.0,2,Lying,4
2019-01-20,16:27:59,3.33,1.09,-9.55,0.0,0.0,0.0,0.0,0.0,0.0,2,Lying,4
2019-01-20,16:27:59,3.33,1.09,-9.55,0.0,0.0,0.0,0.0,0.0,0.0,2,Lying,4
2019-01-20,16:27:59,3.35,1.0799999,-9.55,0.0,0.0,0.0,0.0,0.0,0.0,2,Lying,4
2019-01-20,16:27:59,3.35,1.0799999,-9.55,0.0,0.0,0.0,0.0,0.0,0.0,2,Lying,4
2019-01-20,16:27:59,3.34,1.11,-9.58,0.0,0.0,0.0,0.0,0.0,0.0,2,Lying,4
2019-01-20,16:27:59,3.34,1.11,-9.58,0.0,0.0,0.0,0.0,0.0,0.0,2,Lying,4
2019-01-20,16:27:59,3.33,1.11,-9.55,0.0,0.0,0.0,0.0,0.0,0.0,2,Lying,4
2019-01-20,16:27:59,3.33,1.11,-9.55,0.0,0.0,0.0,0.0,0.0,0.0,2,Lying,4
2019-01-20,16:27:59,3.32,1.11,-9.56,0.0,0.0,0.0,0.0,0.0,0.0,2,Lying,4
2019-01-20,16:27:59,3.32,1.11,-9.56,0.0,0.0,0.0,0.0,0.0,0.0,2,Lying,4
2019-01-20,16:27:59,3.3,1.0799999,-9.55,0.0,0.0,0.0,0.0,0.0,0.0,2,Lying,4
2019-01-20,16:27:59,3.3,1.0799999,-9.55,0.0,0.0,0.0,0.0,0.0,0.0,2,Lying,4
2019-01-20,16:27:59,3.27,1.34,-9.59,0.0,0.0,0.0,0.0,0.0,0.0,2,Lying,4
2019-01-20,16:27:59,3.27,1.34,-9.59,0.0,0.0,0.0,0.0,0.0,0.0,2,Lying,4
2019-01-20,16:27:59,3.32,1.1,-9.58,0.0,0.0,0.0,0.0,0.0,0.0,2,Lying,4
2019-01-20,16:27:59,3.32,1.1,-9.58,0.0,0.0,0.0,0.0,0.0,0.0,2,Lying,4
2019-01-20,16:27:59,3.32,1.0799999,-9.56,0.0,0.0,0.0,0.0,0.0,0.0,2,Lying,4
2019-01-20,16:27:59,3.32,1.0799999,-9.56,0.0,0.0,0.0,0.0,0.0,0.0,2,Lying,4
2019-01-20,16:27:59,3.29,1.11,-9.53,0.0,0.0,0.0,0.0,0.0,0.0,2,Lying,4
2019-01-20,16:27:59,3.29,1.11,-9.53,0.0,0.0,0.0,0.0,0.0,0.0,2,Lying,4
2019-01-20,16:27:59,3.32,1.0799999,-9.519999499999999,0.0,0.0,0.0,0.0,0.0,0.0,2,Lying,4
2019-01-20,16:27:59,3.32,1.0799999,-9.519999499999999,0.0,0.0,0.0,0.0,0.0,0.0,2,Lying,4
2019-01-20,16:27:59,3.31,1.0799999,-9.58,0.0,0.0,0.0,0.0,0.0,0.0,2,Lying,4
2019-01-20,16:27:59,3.31,1.0799999,-9.58,0.0,0.0,0.0,0.0,0.0,0.0,2,Lying,4
2019-01-20,16:27:59,3.32,1.11,-9.55,0.0,0.0,0.0,0.0,0.0,0.0,2,Lying,4
2019-01-20,16:27:59,3.32,1.11,-9.55,0.0,0.0,0.0,0.0,0.0,0.0,2,Lying,4
2019-01-20,16:27:59,3.29,1.1,-9.54,0.0,0.0,0.0,0.0,0.0,0.0,2,Lying,4
2019-01-20,16:27:59,3.29,1.1,-9.54,0.0,0.0,0.0,0.0,0.0,0.0,2,Lying,4
2019-01-20,16:27:59,3.32,1.05,-9.56,0.0,0.0,0.0,0.0,0.0,0.0,2,Lying,4
2019-01-20,16:27:59,3.32,1.05,-9.56,0.0,0.0,0.0,0.0,0.0,0.0,2,Lying,4
2019-01-20,16:27:59,3.3,1.0699999,-9.59,0.0,0.0,0.0,0.0,0.0,0.0,2,Lying,4
2019-01-20,16:27:59,3.3,1.0699999,-9.59,0.0,0.0,0.0,0.0,0.0,0.0,2,Lying,4
2019-01-20,16:27:59,3.3,1.1,-9.58,0.0,0.0,0.0,0.0,0.0,0.0,2,Lying,4
2019-01-20,16:27:59,3.3,1.1,-9.58,0.0,0.0,0.0,0.0,0.0,0.0,2,Lying,4
2019-01-20,16:27:59,3.3,1.06,-9.51,0.0,0.0,0.0,0.0,0.0,0.0,2,Lying,4
2019-01-20,16:27:59,3.3,1.06,-9.51,0.0,0.0,0.0,0.0,0.0,0.0,2,Lying,4
2019-01-20,16:27:59,3.32,1.0799999,-9.62,0.0,0.0,0.0,0.0,0.0,0.0,2,Lying,4
2019-01-20,16:27:59,3.32,1.0799999,-9.62,0.0,0.0,0.0,0.0,0.0,0.0,2,Lying,4
2019-01-20,16:27:59,3.32,1.11,-9.519999499999999,0.0,0.0,0.0,0.0,0.0,0.0,2,Lying,4
2019-01-20,16:27:59,3.32,1.11,-9.519999499999999,-0.01,0.0,0.0,-0.01,0.0,0.0,2,Lying,4
2019-01-20,16:27:59,3.32,1.1,-9.57,-0.01,0.0,0.0,-0.01,0.0,0.0,2,Lying,4
2019-01-20,16:27:59,3.32,1.1,-9.57,0.0,0.0,0.0,0.0,0.0,0.0,2,Lying,4
2019-01-20,16:27:59,3.33,1.11,-9.55,0.0,0.0,0.0,0.0,0.0,0.0,2,Lying,4
2019-01-20,16:27:59,3.33,1.11,-9.55,0.0,0.0,0.0,0.0,0.0,0.0,2,Lying,4
2019-01-20,16:27:59,3.26,1.15,-9.51,0.0,0.0,0.0,0.0,0.0,0.0,2,Lying,4
2019-01-20,16:27:59,3.26,1.15,-9.51,0.0,0.0,0.0,0.0,0.0,0.0,2,Lying,4
2019-01-20,16:27:59,3.33,1.09,-9.61,0.0,0.0,0.0,0.0,0.0,0.0,2,Lying,4
2019-01-20,16:27:59,3.33,1.09,-9.61,0.0,0.0,0.0,0.0,0.0,0.0,2,Lying,4
2019-01-20,16:28:00,3.36,1.11,-9.57,0.0,0.0,0.0,0.0,0.0,0.0,2,Lying,4
2019-01-20,16:28:00,3.36,1.11,-9.57,0.0,0.0,0.0,0.0,0.0,0.0,2,Lying,4
2019-01-20,16:28:00,3.31,1.1,-9.519999499999999,0.0,0.0,0.0,0.0,0.0,0.0,2,Lying,4
2019-01-20,16:28:00,3.31,1.1,-9.519999499999999,0.0,0.0,0.0,0.0,0.0,0.0,2,Lying,4
2019-01-20,16:28:00,3.31,1.15,-9.55,0.0,0.0,0.0,0.0,0.0,0.0,2,Lying,4
2019-01-20,16:28:00,3.31,1.15,-9.55,0.0,0.0,0.0,0.0,0.0,0.0,2,Lying,4
2019-01-20,16:28:00,3.4399998,0.99,-9.58,0.0,0.0,0.0,0.0,0.0,0.0,2,Lying,4
2019-01-20,16:28:00,3.4399998,0.99,-9.58,0.0,0.0,0.0,0.0,0.0,0.0,2,Lying,4
2019-01-20,16:28:00,3.3,1.1,-9.58,0.0,0.0,0.0,0.0,0.0,0.0,2,Lying,4
2019-01-20,16:28:00,3.3,1.1,-9.58,0.0,0.0,0.0,0.0,0.0,0.0,2,Lying,4
2019-01-20,16:28:00,3.31,1.11,-9.57,0.0,0.0,0.0,0.0,0.0,0.0,2,Lying,4
2019-01-20,16:28:00,3.31,1.11,-9.57,0.0,0.0,0.0,0.0,0.0,0.0,2,Lying,4
2019-01-20,16:28:00,3.26,1.0699999,-9.53,0.0,0.0,0.0,0.0,0.0,0.0,2,Lying,4
2019-01-20,16:28:00,3.26,1.0699999,-9.53,0.0,0.0,0.0,0.0,0.0,0.0,2,Lying,4
2019-01-20,16:28:00,3.32,1.11,-9.56,0.0,0.0,0.0,0.0,0.0,0.0,2,Lying,4
2019-01-20,16:28:00,3.32,1.11,-9.56,0.0,0.0,0.0,0.0,0.0,0.0,2,Lying,4
2019-01-20,16:28:00,3.32,1.1,-9.58,0.0,0.0,0.0,0.0,0.0,0.0,2,Lying,4
2019-01-20,16:28:00,3.32,1.1,-9.58,0.0,0.0,0.0,0.0,0.0,0.0,2,Lying,4
2019-01-20,16:28:00,3.29,1.12,-9.58,0.0,0.0,0.0,0.0,0.0,0.0,2,Lying,4
2019-01-20,16:28:00,3.29,1.12,-9.58,0.0,0.0,0.0,0.0,0.0,0.0,2,Lying,4
2019-01-20,16:28:00,3.33,1.12,-9.6,0.0,0.0,0.0,0.0,0.0,0.0,2,Lying,4
2019-01-20,16:28:00,3.33,1.12,-9.6,0.0,0.0,0.0,0.0,0.0,0.0,2,Lying,4
2019-01-20,16:28:00,3.33,1.09,-9.54,0.0,0.0,0.0,0.0,0.0,0.0,2,Lying,4
2019-01-20,16:28:00,3.33,1.09,-9.54,0.0,0.0,0.0,0.0,0.0,0.0,2,Lying,4
2019-01-20,16:28:00,3.31,1.1,-9.55,0.0,0.0,0.0,0.0,0.0,0.0,2,Lying,4
2019-01-20,16:28:00,3.31,1.1,-9.55,0.0,0.0,0.0,0.0,0.0,0.0,2,Lying,4
2019-01-20,16:28:00,3.27,1.11,-9.54,0.0,0.0,0.0,0.0,0.0,0.0,2,Lying,4
2019-01-20,16:28:00,3.27,1.11,-9.54,0.0,0.0,0.0,0.0,0.0,0.0,2,Lying,4
2019-01-20,16:28:00,3.31,1.12,-9.58,0.0,0.0,0.0,0.0,0.0,0.0,2,Lying,4
2019-01-20,16:28:00,3.31,1.12,-9.58,0.0,0.0,0.0,0.0,0.0,0.0,2,Lying,4
2019-01-20,16:28:00,3.3,1.0799999,-9.62,0.0,0.0,0.0,0.0,0.0,0.0,2,Lying,4
2019-01-20,16:28:00,3.3,1.0799999,-9.62,0.0,0.0,0.0,0.0,0.0,0.0,2,Lying,4
2019-01-20,16:28:00,3.32,1.11,-9.519999499999999,0.0,0.0,0.0,0.0,0.0,0.0,2,Lying,4
2019-01-20,16:28:00,3.32,1.11,-9.519999499999999,0.0,0.0,0.0,0.0,0.0,0.0,2,Lying,4
2019-01-20,16:28:00,3.28,1.0799999,-9.59,0.0,0.0,0.0,0.0,0.0,0.0,2,Lying,4
2019-01-20,16:28:00,3.28,1.0799999,-9.59,0.0,0.0,0.0,0.0,0.0,0.0,2,Lying,4
2019-01-20,16:28:00,3.33,1.1,-9.59,0.0,0.0,0.0,0.0,0.0,0.0,2,Lying,4
2019-01-20,16:28:00,3.33,1.1,-9.59,0.0,0.0,0.0,0.0,0.0,0.0,2,Lying,4
2019-01-20,16:28:00,3.3,1.11,-9.6,0.0,0.0,0.0,0.0,0.0,0.0,2,Lying,4
2019-01-20,16:28:00,3.3,1.11,-9.6,0.0,0.0,0.0,0.0,0.0,0.0,2,Lying,4
2019-01-20,16:28:00,3.31,1.14,-9.62,0.0,0.0,0.0,0.0,0.0,0.0,2,Lying,4
2019-01-20,16:28:00,3.31,1.14,-9.62,0.0,0.0,0.0,0.0,0.0,0.0,2,Lying,4
2019-01-20,16:28:00,3.33,1.12,-9.55,0.0,0.0,0.0,0.0,0.0,0.0,2,Lying,4
2019-01-20,16:28:00,3.33,1.12,-9.55,0.0,0.0,0.0,0.0,0.0,0.0,2,Lying,4
2019-01-20,16:28:00,3.3,1.11,-9.57,0.0,0.0,0.0,0.0,0.0,0.0,2,Lying,4
2019-01-20,16:28:00,3.3,1.11,-9.57,0.0,0.0,0.0,0.0,0.0,0.0,2,Lying,4
2019-01-20,16:28:00,3.32,1.1,-9.54,0.0,0.0,0.0,0.0,0.0,0.0,2,Lying,4
2019-01-20,16:28:01,3.32,1.1,-9.54,0.0,0.0,0.0,0.0,0.0,0.0,2,Lying,4
2019-01-20,16:28:01,3.35,1.1,-9.61,0.0,0.0,0.0,0.0,0.0,0.0,2,Lying,4
2019-01-20,16:28:01,3.35,1.1,-9.61,0.0,0.0,0.0,0.0,0.0,0.0,2,Lying,4
2019-01-20,16:28:01,3.31,1.09,-9.54,0.0,0.0,0.0,0.0,0.0,0.0,2,Lying,4
2019-01-20,16:28:01,3.31,1.09,-9.54,0.0,0.0,0.0,0.0,0.0,0.0,2,Lying,4
2019-01-20,16:28:01,3.32,1.11,-9.62,0.0,0.0,0.0,0.0,0.0,0.0,2,Lying,4
2019-01-20,16:28:01,3.32,1.11,-9.62,0.0,0.0,0.0,0.0,0.0,0.0,2,Lying,4
2019-01-20,16:28:01,3.33,1.1,-9.56,0.0,0.0,0.0,0.0,0.0,0.0,2,Lying,4
2019-01-20,16:28:01,3.33,1.1,-9.56,0.0,0.0,0.0,0.0,0.0,0.0,2,Lying,4
2019-01-20,16:28:01,3.32,1.15,-9.54,0.0,0.0,0.0,0.0,0.0,0.0,2,Lying,4
2019-01-20,16:28:01,3.32,1.15,-9.54,0.0,0.0,0.0,0.0,0.0,0.0,2,Lying,4
2019-01-20,16:28:01,3.36,1.43,-9.67,0.0,0.0,0.0,0.0,0.0,0.0,2,Lying,4
2019-01-20,16:28:01,3.36,1.43,-9.67,0.0,0.0,0.0,0.0,0.0,0.0,2,Lying,4
2019-01-20,16:28:01,3.28,1.14,-9.58,0.0,0.0,0.0,0.0,0.0,0.0,2,Lying,4
2019-01-20,16:28:01,3.28,1.14,-9.58,0.0,0.0,0.0,0.0,0.0,0.0,2,Lying,4
2019-01-20,16:28:01,3.32,1.1,-9.54,0.0,0.0,0.0,0.0,0.0,0.0,2,Lying,4
2019-01-20,16:28:01,3.32,1.1,-9.54,0.0,0.0,0.0,0.0,0.0,0.0,2,Lying,4
2019-01-20,16:28:01,3.34,1.12,-9.55,0.0,0.0,0.0,0.0,0.0,0.0,2,Lying,4
2019-01-20,16:28:01,3.34,1.12,-9.55,-0.01,0.0,0.0,-0.01,0.0,0.0,2,Lying,4
2019-01-20,16:28:01,3.31,1.11,-9.59,-0.01,0.0,0.0,-0.01,0.0,0.0,2,Lying,4
2019-01-20,16:28:01,3.31,1.11,-9.59,0.0,0.0,0.0,0.0,0.0,0.0,2,Lying,4
2019-01-20,16:28:01,3.3,1.17,-9.61,0.0,0.0,0.0,0.0,0.0,0.0,2,Lying,4
2019-01-20,16:28:01,3.3,1.17,-9.61,0.0,0.0,0.0,0.0,0.0,0.0,2,Lying,4
2019-01-20,16:28:01,3.32,1.12,-9.56,0.0,0.0,0.0,0.0,0.0,0.0,2,Lying,4
2019-01-20,16:28:01,3.32,1.12,-9.56,-0.01,0.0,0.0,-0.01,0.0,0.0,2,Lying,4
2019-01-20,16:28:01,3.35,1.14,-9.57,-0.01,0.0,0.0,-0.01,0.0,0.0,2,Lying,4
2019-01-20,16:28:01,3.35,1.14,-9.57,-0.01,0.01,0.0,-0.01,0.01,0.0,2,Lying,4
2019-01-20,16:28:01,3.36,1.13,-9.5,-0.01,0.01,0.0,-0.01,0.01,0.0,2,Lying,4
2019-01-20,16:28:01,3.36,1.13,-9.5,-0.01,0.0,0.0,-0.01,0.0,0.0,2,Lying,4
2019-01-20,16:28:01,3.3,1.14,-9.51,-0.01,0.0,0.0,-0.01,0.0,0.0,2,Lying,4
2019-01-20,16:28:01,3.3,1.14,-9.51,0.0,0.0,0.0,0.0,0.0,0.0,2,Lying,4
2019-01-20,16:28:01,3.36,1.16,-9.51,0.0,0.0,0.0,0.0,0.0,0.0,2,Lying,4
2019-01-20,16:28:01,3.36,1.16,-9.51,0.01,0.0,0.0,0.01,0.0,0.0,2,Lying,4
2019-01-20,16:28:01,3.35,1.13,-9.54,0.01,0.0,0.0,0.01,0.0,0.0,2,Lying,4
2019-01-20,16:28:01,3.35,1.13,-9.54,0.01,0.0,0.0,0.01,0.0,0.0,2,Lying,4
2019-01-20,16:28:01,3.34,1.13,-9.56,0.01,0.0,0.0,0.01,0.0,0.0,2,Lying,4
2019-01-20,16:28:01,3.34,1.13,-9.56,0.02,0.0,0.0,0.02,0.0,0.0,2,Lying,4
2019-01-20,16:28:01,3.33,1.11,-9.56,0.02,0.0,0.0,0.02,0.0,0.0,2,Lying,4
2019-01-20,16:28:01,3.33,1.11,-9.56,0.01,0.0,0.0,0.01,0.0,0.0,2,Lying,4
2019-01-20,16:28:01,3.31,1.12,-9.53,0.01,0.0,0.0,0.01,0.0,0.0,2,Lying,4
2019-01-20,16:28:01,3.31,1.12,-9.53,0.0,0.0,0.0,0.0,0.0,0.0,2,Lying,4
2019-01-20,16:28:01,3.28,1.15,-9.57,0.0,0.0,0.0,0.0,0.0,0.0,2,Lying,4
2019-01-20,16:28:01,3.28,1.15,-9.57,0.0,0.0,0.0,0.0,0.0,0.0,2,Lying,4
2019-01-20,16:28:01,3.31,1.14,-9.54,0.0,0.0,0.0,0.0,0.0,0.0,2,Lying,4
2019-01-20,16:28:01,3.31,1.14,-9.54,0.0,0.0,0.0,0.0,0.0,0.0,2,Lying,4
2019-01-20,16:28:01,3.31,1.09,-9.54,0.0,0.0,0.0,0.0,0.0,0.0,2,Lying,4
2019-01-20,16:28:01,3.31,1.09,-9.54,0.0,0.0,0.0,0.0,0.0,0.0,2,Lying,4
2019-01-20,16:28:02,3.35,1.1,-9.58,0.0,0.0,0.0,0.0,0.0,0.0,2,Lying,4
2019-01-20,16:28:02,3.35,1.1,-9.58,0.0,0.0,0.0,0.0,0.0,0.0,2,Lying,4
2019-01-20,16:28:02,3.36,1.14,-9.54,0.0,0.0,0.0,0.0,0.0,0.0,2,Lying,4
2019-01-20,16:28:02,3.36,1.14,-9.54,0.0,0.0,0.0,0.0,0.0,0.0,2,Lying,4
2019-01-20,16:28:02,3.31,1.12,-9.54,0.0,0.0,0.0,0.0,0.0,0.0,2,Lying,4
2019-01-20,16:28:02,3.31,1.12,-9.54,0.0,0.0,0.0,0.0,0.0,0.0,2,Lying,4
2019-01-20,16:28:02,3.31,1.12,-9.58,0.0,0.0,0.0,0.0,0.0,0.0,2,Lying,4
2019-01-20,16:28:02,3.31,1.12,-9.58,0.0,0.0,0.0,0.0,0.0,0.0,2,Lying,4
2019-01-20,16:28:02,3.32,1.1,-9.53,0.0,0.0,0.0,0.0,0.0,0.0,2,Lying,4
2019-01-20,16:28:02,3.32,1.1,-9.53,0.0,0.0,0.0,0.0,0.0,0.0,2,Lying,4
2019-01-20,16:28:02,3.33,1.1,-9.57,0.0,0.0,0.0,0.0,0.0,0.0,2,Lying,4
2019-01-20,16:28:02,3.33,1.1,-9.57,0.0,0.0,0.0,0.0,0.0,0.0,2,Lying,4
2019-01-20,16:28:02,3.29,1.1,-9.56,0.0,0.0,0.0,0.0,0.0,0.0,2,Lying,4
2019-01-20,16:28:02,3.29,1.1,-9.56,0.0,0.0,0.0,0.0,0.0,0.0,2,Lying,4
2019-01-20,16:28:02,3.33,1.15,-9.56,0.0,0.0,0.0,0.0,0.0,0.0,2,Lying,4
2019-01-20,16:28:02,3.33,1.15,-9.56,0.0,0.0,0.0,0.0,0.0,0.0,2,Lying,4
2019-01-20,16:28:02,3.3,1.11,-9.55,0.0,0.0,0.0,0.0,0.0,0.0,2,Lying,4
2019-01-20,16:28:02,3.3,1.11,-9.55,0.0,0.0,0.0,0.0,0.0,0.0,2,Lying,4
2019-01-20,16:28:02,3.29,1.12,-9.55,0.0,0.0,0.0,0.0,0.0,0.0,2,Lying,4
2019-01-20,16:28:02,3.29,1.12,-9.55,0.0,0.0,0.0,0.0,0.0,0.0,2,Lying,4
2019-01-20,16:28:02,3.31,1.14,-9.55,0.0,0.0,0.0,0.0,0.0,0.0,2,Lying,4
2019-01-20,16:28:02,3.31,1.14,-9.55,0.0,0.0,0.0,0.0,0.0,0.0,2,Lying,4
2019-01-20,16:28:02,3.32,1.09,-9.62,0.0,0.0,0.0,0.0,0.0,0.0,2,Lying,4
2019-01-20,16:28:02,3.32,1.09,-9.62,0.0,0.0,0.0,0.0,0.0,0.0,2,Lying,4
2019-01-20,16:28:02,3.35,1.11,-9.61,0.0,0.0,0.0,0.0,0.0,0.0,2,Lying,4
2019-01-20,16:28:02,3.35,1.11,-9.61,0.0,0.0,0.0,0.0,0.0,0.0,2,Lying,4
2019-01-20,16:28:02,3.33,1.06,-9.54,0.0,0.0,0.0,0.0,0.0,0.0,2,Lying,4
2019-01-20,16:28:02,3.33,1.06,-9.54,0.0,0.0,0.0,0.0,0.0,0.0,2,Lying,4
2019-01-20,16:28:02,3.31,1.13,-9.58,0.0,0.0,0.0,0.0,0.0,0.0,2,Lying,4
2019-01-20,16:28:02,3.31,1.13,-9.58,0.0,0.0,0.0,0.0,0.0,0.0,2,Lying,4
2019-01-20,16:28:02,3.32,1.11,-9.519999499999999,0.0,0.0,0.0,0.0,0.0,0.0,2,Lying,4
2019-01-20,16:28:02,3.32,1.11,-9.519999499999999,0.0,0.0,0.0,0.0,0.0,0.0,2,Lying,4
2019-01-20,16:28:02,3.33,1.09,-9.519999499999999,0.0,0.0,0.0,0.0,0.0,0.0,2,Lying,4
2019-01-20,16:28:02,3.33,1.09,-9.519999499999999,0.0,0.0,0.0,0.0,0.0,0.0,2,Lying,4
2019-01-20,16:28:02,3.32,1.11,-9.54,0.0,0.0,0.0,0.0,0.0,0.0,2,Lying,4
2019-01-20,16:28:02,3.32,1.11,-9.54,0.0,0.0,0.0,0.0,0.0,0.0,2,Lying,4
2019-01-20,16:28:02,3.31,1.09,-9.59,0.0,0.0,0.0,0.0,0.0,0.0,2,Lying,4
2019-01-20,16:28:02,3.31,1.09,-9.59,0.0,0.0,0.0,0.0,0.0,0.0,2,Lying,4
2019-01-20,16:28:02,3.35,1.09,-9.53,0.0,0.0,0.0,0.0,0.0,0.0,2,Lying,4
2019-01-20,16:28:02,3.35,1.09,-9.53,0.0,0.0,0.0,0.0,0.0,0.0,2,Lying,4
2019-01-20,16:28:02,3.32,1.13,-9.57,0.0,0.0,0.0,0.0,0.0,0.0,2,Lying,4
2019-01-20,16:28:02,3.32,1.13,-9.57,0.0,0.0,0.0,0.0,0.0,0.0,2,Lying,4
2019-01-20,16:28:02,3.34,1.1,-9.54,0.0,0.0,0.0,0.0,0.0,0.0,2,Lying,4
2019-01-20,16:28:02,3.34,1.1,-9.54,0.0,0.0,0.0,0.0,0.0,0.0,2,Lying,4
2019-01-20,16:28:02,3.32,1.09,-9.5,0.0,0.0,0.0,0.0,0.0,0.0,2,Lying,4
2019-01-20,16:28:02,3.32,1.09,-9.5,0.0,0.0,0.0,0.0,0.0,0.0,2,Lying,4
2019-01-20,16:28:02,3.36,1.1,-9.54,0.0,0.0,0.0,0.0,0.0,0.0,2,Lying,4
2019-01-20,16:28:02,3.36,1.1,-9.54,0.0,0.0,0.0,0.0,0.0,0.0,2,Lying,4
2019-01-20,16:28:03,3.33,1.0799999,-9.57,0.0,0.0,0.0,0.0,0.0,0.0,2,Lying,4
2019-01-20,16:28:03,3.33,1.0799999,-9.57,0.0,0.0,0.0,0.0,0.0,0.0,2,Lying,4
2019-01-20,16:28:03,3.3,1.12,-9.54,0.0,0.0,0.0,0.0,0.0,0.0,2,Lying,4
2019-01-20,16:28:03,3.3,1.12,-9.54,0.0,0.0,0.0,0.0,0.0,0.0,2,Lying,4
2019-01-20,16:28:03,3.33,0.91999996,-9.57,0.0,0.0,0.0,0.0,0.0,0.0,2,Lying,4
2019-01-20,16:28:03,3.33,0.91999996,-9.57,0.0,0.0,0.0,0.0,0.0,0.0,2,Lying,4
2019-01-20,16:28:03,3.32,1.12,-9.53,0.0,0.0,0.0,0.0,0.0,0.0,2,Lying,4
2019-01-20,16:28:03,3.32,1.12,-9.53,0.0,0.0,0.0,0.0,0.0,0.0,2,Lying,4
2019-01-20,16:28:03,3.36,1.0799999,-9.54,0.0,0.0,0.0,0.0,0.0,0.0,2,Lying,4
2019-01-20,16:28:03,3.36,1.0799999,-9.54,0.0,0.0,0.0,0.0,0.0,0.0,2,Lying,4
2019-01-20,16:28:03,3.32,1.12,-9.53,0.0,0.0,0.0,0.0,0.0,0.0,2,Lying,4
2019-01-20,16:28:03,3.32,1.12,-9.53,0.0,0.0,0.0,0.0,0.0,0.0,2,Lying,4
2019-01-20,16:28:03,3.32,1.14,-9.6,0.0,0.0,0.0,0.0,0.0,0.0,2,Lying,4
2019-01-20,16:28:03,3.32,1.14,-9.6,0.0,0.0,0.0,0.0,0.0,0.0,2,Lying,4
2019-01-20,16:28:03,3.34,1.11,-9.54,0.0,0.0,0.0,0.0,0.0,0.0,2,Lying,4
2019-01-20,16:28:03,3.34,1.11,-9.54,0.0,0.0,0.0,0.0,0.0,0.0,2,Lying,4
2019-01-20,16:28:03,3.32,1.1,-9.54,0.0,0.0,0.0,0.0,0.0,0.0,2,Lying,4
2019-01-20,16:28:03,3.32,1.1,-9.54,0.0,0.0,0.0,0.0,0.0,0.0,2,Lying,4
2019-01-20,16:28:03,3.3,1.12,-9.55,0.0,0.0,0.0,0.0,0.0,0.0,2,Lying,4
2019-01-20,16:28:03,3.3,1.12,-9.55,0.0,0.0,0.0,0.0,0.0,0.0,2,Lying,4
2019-01-20,16:28:03,3.31,1.0799999,-9.57,0.0,0.0,0.0,0.0,0.0,0.0,2,Lying,4
2019-01-20,16:28:03,3.31,1.0799999,-9.57,0.0,0.0,0.0,0.0,0.0,0.0,2,Lying,4
2019-01-20,16:28:03,3.31,1.13,-9.61,0.0,0.0,0.0,0.0,0.0,0.0,2,Lying,4
2019-01-20,16:28:03,3.31,1.13,-9.61,0.0,0.0,0.0,0.0,0.0,0.0,2,Lying,4
2019-01-20,16:28:03,3.33,1.0699999,-9.55,0.0,0.0,0.0,0.0,0.0,0.0,2,Lying,4
2019-01-20,16:28:03,3.33,1.0699999,-9.55,0.0,0.0,0.0,0.0,0.0,0.0,2,Lying,4
2019-01-20,16:28:03,3.3,1.09,-9.55,0.0,0.0,0.0,0.0,0.0,0.0,2,Lying,4
2019-01-20,16:28:03,3.3,1.09,-9.55,0.0,0.0,0.0,0.0,0.0,0.0,2,Lying,4
2019-01-20,16:28:03,3.32,1.16,-9.54,0.0,0.0,0.0,0.0,0.0,0.0,2,Lying,4
2019-01-20,16:28:03,3.32,1.16,-9.54,0.0,0.0,0.0,0.0,0.0,0.0,2,Lying,4
2019-01-20,16:28:03,3.32,1.09,-9.55,0.0,0.0,0.0,0.0,0.0,0.0,2,Lying,4
2019-01-20,16:28:03,3.32,1.09,-9.55,0.0,0.0,0.0,0.0,0.0,0.0,2,Lying,4
2019-01-20,16:28:03,3.33,1.11,-9.56,0.0,0.0,0.0,0.0,0.0,0.0,2,Lying,4
2019-01-20,16:28:03,3.33,1.11,-9.56,0.0,0.0,0.0,0.0,0.0,0.0,2,Lying,4
2019-01-20,16:28:03,3.33,1.13,-9.56,0.0,0.0,0.0,0.0,0.0,0.0,2,Lying,4
2019-01-20,16:28:03,3.33,1.13,-9.56,0.0,0.0,0.0,0.0,0.0,0.0,2,Lying,4
2019-01-20,16:28:03,3.31,1.12,-9.58,0.0,0.0,0.0,0.0,0.0,0.0,2,Lying,4
2019-01-20,16:28:03,3.31,1.12,-9.58,0.0,0.0,0.0,0.0,0.0,0.0,2,Lying,4
2019-01-20,16:28:03,3.29,1.1,-9.51,0.0,0.0,0.0,0.0,0.0,0.0,2,Lying,4
2019-01-20,16:28:03,3.29,1.1,-9.51,0.0,0.0,0.0,0.0,0.0,0.0,2,Lying,4
2019-01-20,16:28:03,3.33,1.0799999,-9.62,0.0,0.0,0.0,0.0,0.0,0.0,2,Lying,4
2019-01-20,16:28:03,3.33,1.0799999,-9.62,0.0,0.0,0.0,0.0,0.0,0.0,2,Lying,4
2019-01-20,16:28:03,3.31,1.13,-9.62,0.0,0.0,0.0,0.0,0.0,0.0,2,Lying,4
2019-01-20,16:28:03,3.31,1.13,-9.62,0.0,0.0,0.0,0.0,0.0,0.0,2,Lying,4
2019-01-20,16:28:04,3.35,1.12,-9.519999499999999,0.0,0.0,0.0,0.0,0.0,0.0,2,Lying,4
2019-01-20,16:28:04,3.35,1.12,-9.519999499999999,0.0,0.0,0.0,0.0,0.0,0.0,2,Lying,4
2019-01-20,16:28:04,3.32,1.12,-9.63,0.0,0.0,0.0,0.0,0.0,0.0,2,Lying,4
2019-01-20,16:28:04,3.32,1.12,-9.63,0.0,0.0,0.0,0.0,0.0,0.0,2,Lying,4
2019-01-20,16:28:04,3.3,1.13,-9.51,0.0,0.0,0.0,0.0,0.0,0.0,2,Lying,4
2019-01-20,16:28:04,3.3,1.13,-9.51,0.0,0.0,0.0,0.0,0.0,0.0,2,Lying,4
2019-01-20,16:28:04,3.34,1.1,-9.56,0.0,0.0,0.0,0.0,0.0,0.0,2,Lying,4
2019-01-20,16:28:04,3.34,1.1,-9.56,0.0,0.0,0.0,0.0,0.0,0.0,2,Lying,4
2019-01-20,16:28:04,3.3,1.11,-9.55,0.0,0.0,0.0,0.0,0.0,0.0,2,Lying,4
2019-01-20,16:28:04,3.3,1.11,-9.55,0.0,0.0,0.0,0.0,0.0,0.0,2,Lying,4
2019-01-20,16:28:04,3.34,1.14,-9.61,0.0,0.0,0.0,0.0,0.0,0.0,2,Lying,4
2019-01-20,16:28:04,3.34,1.14,-9.61,0.0,0.0,0.0,0.0,0.0,0.0,2,Lying,4
2019-01-20,16:28:04,3.29,1.1,-9.56,0.0,0.0,0.0,0.0,0.0,0.0,2,Lying,4
2019-01-20,16:28:04,3.29,1.1,-9.56,0.0,0.0,0.0,0.0,0.0,0.0,2,Lying,4
2019-01-20,16:28:04,3.31,1.1,-9.59,0.0,0.0,0.0,0.0,0.0,0.0,2,Lying,4
2019-01-20,16:28:04,3.31,1.1,-9.59,0.0,0.0,0.0,0.0,0.0,0.0,2,Lying,4
2019-01-20,16:28:04,3.31,1.12,-9.519999499999999,0.0,0.0,0.0,0.0,0.0,0.0,2,Lying,4
2019-01-20,16:28:04,3.31,1.12,-9.519999499999999,0.0,0.0,0.0,0.0,0.0,0.0,2,Lying,4
2019-01-20,16:28:04,3.31,1.09,-9.53,0.0,0.0,0.0,0.0,0.0,0.0,2,Lying,4
2019-01-20,16:28:04,3.31,1.09,-9.53,0.0,0.0,0.0,0.0,0.0,0.0,2,Lying,4
2019-01-20,16:28:04,3.32,1.12,-9.57,0.0,0.0,0.0,0.0,0.0,0.0,2,Lying,4
2019-01-20,16:28:04,3.32,1.12,-9.57,0.0,0.0,0.0,0.0,0.0,0.0,2,Lying,4
2019-01-20,16:28:04,3.33,1.14,-9.56,0.0,0.0,0.0,0.0,0.0,0.0,2,Lying,4
2019-01-20,16:28:04,3.33,1.14,-9.56,0.0,0.0,0.0,0.0,0.0,0.0,2,Lying,4
2019-01-20,16:28:04,3.32,1.1,-9.56,0.0,0.0,0.0,0.0,0.0,0.0,2,Lying,4
2019-01-20,16:28:04,3.32,1.1,-9.56,0.0,0.0,0.0,0.0,0.0,0.0,2,Lying,4
2019-01-20,16:28:04,3.36,1.1,-9.61,0.0,0.0,0.0,0.0,0.0,0.0,2,Lying,4
2019-01-20,16:28:04,3.36,1.1,-9.61,0.0,0.0,0.0,0.0,0.0,0.0,2,Lying,4
2019-01-20,16:28:04,3.29,1.0799999,-9.53,0.0,0.0,0.0,0.0,0.0,0.0,2,Lying,4
2019-01-20,16:28:04,3.29,1.0799999,-9.53,0.0,0.0,0.0,0.0,0.0,0.0,2,Lying,4
2019-01-20,16:28:04,3.32,1.15,-9.519999499999999,0.0,0.0,0.0,0.0,0.0,0.0,2,Lying,4
2019-01-20,16:28:04,3.32,1.15,-9.519999499999999,0.0,0.0,0.0,0.0,0.0,0.0,2,Lying,4
2019-01-20,16:28:04,3.27,1.14,-9.49,0.0,0.0,0.0,0.0,0.0,0.0,2,Lying,4
2019-01-20,16:28:04,3.27,1.14,-9.49,0.0,0.0,0.0,0.0,0.0,0.0,2,Lying,4
2019-01-20,16:28:04,3.32,1.14,-9.57,0.0,0.0,0.0,0.0,0.0,0.0,2,Lying,4
2019-01-20,16:28:04,3.32,1.14,-9.57,0.0,0.0,0.0,0.0,0.0,0.0,2,Lying,4
2019-01-20,16:28:04,3.33,1.11,-9.54,0.0,0.0,0.0,0.0,0.0,0.0,2,Lying,4
2019-01-20,16:28:04,3.33,1.11,-9.54,0.0,0.0,0.0,0.0,0.0,0.0,2,Lying,4
2019-01-20,16:28:04,3.36,1.17,-9.53,0.0,0.0,0.0,0.0,0.0,0.0,2,Lying,4
2019-01-20,16:28:04,3.36,1.17,-9.53,0.0,0.0,0.0,0.0,0.0,0.0,2,Lying,4
2019-01-20,16:28:04,3.28,1.12,-9.6,0.0,0.0,0.0,0.0,0.0,0.0,2,Lying,4
2019-01-20,16:28:04,3.28,1.12,-9.6,0.0,0.0,0.0,0.0,0.0,0.0,2,Lying,4
2019-01-20,16:28:04,3.32,1.09,-9.6,0.0,0.0,0.0,0.0,0.0,0.0,2,Lying,4
2019-01-20,16:28:04,3.32,1.09,-9.6,0.0,0.0,0.0,0.0,0.0,0.0,2,Lying,4
2019-01-20,16:28:04,3.3,1.13,-9.58,0.0,0.0,0.0,0.0,0.0,0.0,2,Lying,4
2019-01-20,16:28:04,3.3,1.13,-9.58,0.0,0.0,0.0,0.0,0.0,0.0,2,Lying,4
2019-01-20,16:28:04,3.36,1.14,-9.5,0.0,0.0,0.0,0.0,0.0,0.0,2,Lying,4
2019-01-20,16:28:04,3.36,1.14,-9.5,0.0,0.0,0.0,0.0,0.0,0.0,2,Lying,4
2019-01-20,16:28:04,3.31,1.12,-9.49,0.0,0.0,0.0,0.0,0.0,0.0,2,Lying,4
2019-01-20,16:28:05,3.31,1.12,-9.49,0.01,0.0,0.0,0.01,0.0,0.0,2,Lying,4
2019-01-20,16:28:05,3.34,1.13,-9.56,0.01,0.0,0.0,0.01,0.0,0.0,2,Lying,4
2019-01-20,16:28:05,3.34,1.13,-9.56,0.01,0.0,0.0,0.01,0.0,0.0,2,Lying,4
2019-01-20,16:28:05,3.35,1.12,-9.54,0.01,0.0,0.0,0.01,0.0,0.0,2,Lying,4
2019-01-20,16:28:05,3.35,1.12,-9.54,0.01,0.0,0.0,0.01,0.0,0.0,2,Lying,4
2019-01-20,16:28:05,3.31,1.16,-9.55,0.01,0.0,0.0,0.01,0.0,0.0,2,Lying,4
2019-01-20,16:28:05,3.31,1.16,-9.55,0.0,0.0,0.0,0.0,0.0,0.0,2,Lying,4
2019-01-20,16:28:05,3.33,1.12,-9.519999499999999,0.0,0.0,0.0,0.0,0.0,0.0,2,Lying,4
2019-01-20,16:28:05,3.33,1.12,-9.519999499999999,0.0,0.0,0.0,0.0,0.0,0.0,2,Lying,4
2019-01-20,16:28:05,3.28,1.13,-9.55,0.0,0.0,0.0,0.0,0.0,0.0,2,Lying,4
2019-01-20,16:28:05,3.28,1.13,-9.55,0.0,0.0,0.0,0.0,0.0,0.0,2,Lying,4
2019-01-20,16:28:05,3.33,1.14,-9.55,0.0,0.0,0.0,0.0,0.0,0.0,2,Lying,4
2019-01-20,16:28:05,3.33,1.14,-9.55,0.0,0.0,0.0,0.0,0.0,0.0,2,Lying,4
2019-01-20,16:28:05,3.31,1.09,-9.519999499999999,0.0,0.0,0.0,0.0,0.0,0.0,2,Lying,4
2019-01-20,16:28:05,3.31,1.09,-9.519999499999999,0.0,0.0,0.0,0.0,0.0,0.0,2,Lying,4
2019-01-20,16:28:05,3.31,1.12,-9.56,0.0,0.0,0.0,0.0,0.0,0.0,2,Lying,4
2019-01-20,16:28:05,3.31,1.12,-9.56,0.0,0.0,0.0,0.0,0.0,0.0,2,Lying,4
2019-01-20,16:28:05,3.3,1.09,-9.51,0.0,0.0,0.0,0.0,0.0,0.0,2,Lying,4
2019-01-20,16:28:05,3.3,1.09,-9.51,0.0,0.0,0.0,0.0,0.0,0.0,2,Lying,4
2019-01-20,16:28:05,3.33,1.12,-9.55,0.0,0.0,0.0,0.0,0.0,0.0,2,Lying,4
2019-01-20,16:28:05,3.33,1.12,-9.55,0.0,0.0,0.0,0.0,0.0,0.0,2,Lying,4
2019-01-20,16:28:05,3.32,1.09,-9.61,0.0,0.0,0.0,0.0,0.0,0.0,2,Lying,4
2019-01-20,16:28:05,3.32,1.09,-9.61,0.0,0.0,0.0,0.0,0.0,0.0,2,Lying,4
2019-01-20,16:28:05,3.32,1.1,-9.56,0.0,0.0,0.0,0.0,0.0,0.0,2,Lying,4
2019-01-20,16:28:05,3.32,1.1,-9.56,0.0,0.0,0.0,0.0,0.0,0.0,2,Lying,4
2019-01-20,16:28:05,3.29,1.11,-9.54,0.0,0.0,0.0,0.0,0.0,0.0,2,Lying,4
2019-01-20,16:28:05,3.29,1.11,-9.54,0.0,0.0,0.0,0.0,0.0,0.0,2,Lying,4
2019-01-20,16:28:05,3.31,1.13,-9.55,0.0,0.0,0.0,0.0,0.0,0.0,2,Lying,4
2019-01-20,16:28:05,3.31,1.13,-9.55,0.0,0.0,0.0,0.0,0.0,0.0,2,Lying,4
2019-01-20,16:28:05,3.35,1.0799999,-9.56,0.0,0.0,0.0,0.0,0.0,0.0,2,Lying,4
2019-01-20,16:28:05,3.35,1.0799999,-9.56,0.0,0.0,0.0,0.0,0.0,0.0,2,Lying,4
2019-01-20,16:28:05,3.35,1.09,-9.53,0.0,0.0,0.0,0.0,0.0,0.0,2,Lying,4
2019-01-20,16:28:05,3.35,1.09,-9.53,0.0,0.0,0.0,0.0,0.0,0.0,2,Lying,4
2019-01-20,16:28:05,3.31,1.13,-9.54,0.0,0.0,0.0,0.0,0.0,0.0,2,Lying,4
2019-01-20,16:28:05,3.31,1.13,-9.54,0.0,0.0,0.0,0.0,0.0,0.0,2,Lying,4
