date,time,accX,accY,accZ,gyroX,gyroY,gyroZ,magX,magY,magZ,Trial,activity,activity_number
2019-01-21,17:14:19,0.2,-2.84,10.009999,0.11,0.16,-0.06,0.11,0.16,-0.06,1,Lying,4
2019-01-21,17:14:19,0.34,-2.19,11.25,0.11,0.16,-0.06,0.11,0.16,-0.06,1,Lying,4
2019-01-21,17:14:19,0.34,-2.19,11.25,0.25,0.049999997000000004,0.11,0.25,0.049999997000000004,0.11,1,Lying,4
2019-01-21,17:14:19,-0.19999999,-2.44,10.74,0.25,0.049999997000000004,0.11,0.25,0.049999997000000004,0.11,1,Lying,4
2019-01-21,17:14:19,-0.19999999,-2.44,10.74,0.65999997,-0.53999996,0.02,0.65999997,-0.53999996,0.02,1,Lying,4
2019-01-21,17:14:19,0.2,-2.34,10.669999,0.65999997,-0.53999996,0.02,0.65999997,-0.53999996,0.02,1,Lying,4
2019-01-21,17:14:19,0.2,-2.34,10.669999,0.66999996,-0.47,0.17,0.66999996,-0.47,0.17,1,Lying,4
2019-01-21,17:14:19,0.14,-1.64,9.71,0.66999996,-0.47,0.17,0.66999996,-0.47,0.17,1,Lying,4
2019-01-21,17:14:19,0.14,-1.64,9.71,0.79999995,-0.45999998,0.34,0.79999995,-0.45999998,0.34,1,Lying,4
2019-01-21,17:14:19,0.41,-1.22,9.179999,0.79999995,-0.45999998,0.34,0.79999995,-0.45999998,0.34,1,Lying,4
2019-01-21,17:14:19,0.41,-1.22,9.179999,0.87,-0.45,0.42999998,0.87,-0.45,0.42999998,1,Lying,4
2019-01-21,17:14:19,0.85999995,-0.69,7.0299997,0.87,-0.45,0.42999998,0.87,-0.45,0.42999998,1,Lying,4
2019-01-21,17:14:19,0.85999995,-0.69,7.0299997,0.78,-0.39,0.56,0.78,-0.39,0.56,1,Lying,4
2019-01-21,17:14:20,3.6,-0.53,9.08,0.78,-0.39,0.56,0.78,-0.39,0.56,1,Lying,4
2019-01-21,17:14:20,3.6,-0.53,9.08,0.29999998,-1.4,0.45999998,0.29999998,-1.4,0.45999998,1,Lying,4
2019-01-21,17:14:20,2.08,-1.3299999,10.059999000000001,0.29999998,-1.4,0.45999998,0.29999998,-1.4,0.45999998,1,Lying,4
2019-01-21,17:14:20,2.08,-1.3299999,10.059999000000001,0.63,-0.12,0.17999999,0.63,-0.12,0.17999999,1,Lying,4
2019-01-21,17:14:20,1.5699999,-0.45999998,9.219999000000001,0.63,-0.12,0.17999999,0.63,-0.12,0.17999999,1,Lying,4
2019-01-21,17:14:20,1.5699999,-0.45999998,9.219999000000001,0.84,0.76,0.75,0.84,0.76,0.75,1,Lying,4
2019-01-21,17:14:20,0.56999993,-0.060000002000000004,8.879999,0.84,0.76,0.75,0.84,0.76,0.75,1,Lying,4
2019-01-21,17:14:20,0.56999993,-0.060000002000000004,8.879999,1.03,0.19,0.53,1.03,0.19,0.53,1,Lying,4
2019-01-21,17:14:20,0.85999995,0.61,7.7899994999999995,1.03,0.19,0.53,1.03,0.19,0.53,1,Lying,4
2019-01-21,17:14:20,0.85999995,0.61,7.7899994999999995,1.01,-0.04,0.82,1.01,-0.04,0.82,1,Lying,4
2019-01-21,17:14:20,1.66,1.13,7.6899996,1.01,-0.04,0.82,1.01,-0.04,0.82,1,Lying,4
2019-01-21,17:14:20,1.66,1.13,7.6899996,0.81,-0.08,0.84,0.81,-0.08,0.84,1,Lying,4
2019-01-21,17:14:20,1.79,1.6700001,6.7299995,0.81,-0.08,0.84,0.81,-0.08,0.84,1,Lying,4
2019-01-21,17:14:20,1.79,1.6700001,6.7299995,0.45999998,0.58,1.01,0.45999998,0.58,1.01,1,Lying,4
2019-01-21,17:14:20,2.49,1.21,6.3599997,0.45999998,0.58,1.01,0.45999998,0.58,1.01,1,Lying,4
2019-01-21,17:14:20,2.49,1.21,6.3599997,0.14999999,-0.14999999,0.94,0.14999999,-0.14999999,0.94,1,Lying,4
2019-01-21,17:14:20,4.07,0.64,6.74,0.14999999,-0.14999999,0.94,0.14999999,-0.14999999,0.94,1,Lying,4
2019-01-21,17:14:20,4.07,0.64,6.74,0.04,-1.0699999,0.74,0.04,-1.0699999,0.74,1,Lying,4
2019-01-21,17:14:20,7.11,0.49,7.8299994,0.04,-1.0699999,0.74,0.04,-1.0699999,0.74,1,Lying,4
2019-01-21,17:14:20,7.11,0.49,7.8299994,-0.32999998,-0.84999996,0.84999996,-0.32999998,-0.84999996,0.84999996,1,Lying,4
2019-01-21,17:14:20,6.9700003,-0.17999998,9.339999,-0.32999998,-0.84999996,0.84999996,-0.32999998,-0.84999996,0.84999996,1,Lying,4
2019-01-21,17:14:20,6.9700003,-0.17999998,9.339999,-0.56,-0.089999996,0.53999996,-0.56,-0.089999996,0.53999996,1,Lying,4
2019-01-21,17:14:20,3.06,0.14999998,8.45,-0.56,-0.089999996,0.53999996,-0.56,-0.089999996,0.53999996,1,Lying,4
2019-01-21,17:14:20,3.06,0.14999998,8.45,-0.38,1.05,-0.21,-0.38,1.05,-0.21,1,Lying,4
2019-01-21,17:14:20,1.4,-0.030000001000000002,8.94,-0.38,1.05,-0.21,-0.38,1.05,-0.21,1,Lying,4
2019-01-21,17:14:20,1.4,-0.030000001000000002,8.94,-0.24,1.22,-0.17999999,-0.24,1.22,-0.17999999,1,Lying,4
2019-01-21,17:14:20,1.18,-0.17999998,9.7,-0.19,1.0,0.07,-0.19,1.0,0.07,1,Lying,4
2019-01-21,17:14:20,1.18,-0.17999998,9.7,-0.19,1.0,0.07,-0.19,1.0,0.07,1,Lying,4
2019-01-21,17:14:20,0.79999995,0.04000002,8.96,-0.19,1.0,0.07,-0.19,1.0,0.07,1,Lying,4
2019-01-21,17:14:20,0.79999995,0.04000002,8.96,0.02,0.03,-0.14,0.02,0.03,-0.14,1,Lying,4
2019-01-21,17:14:20,1.68,0.25,9.429999,0.02,0.03,-0.14,0.02,0.03,-0.14,1,Lying,4
2019-01-21,17:14:20,1.68,0.25,9.429999,-0.07,-0.35,0.0,-0.07,-0.35,0.0,1,Lying,4
2019-01-21,17:14:20,3.09,0.57000005,8.799999,-0.07,-0.35,0.0,-0.07,-0.35,0.0,1,Lying,4
2019-01-21,17:14:20,3.09,0.57000005,8.799999,0.0,-0.41,0.08,0.0,-0.41,0.08,1,Lying,4
2019-01-21,17:14:20,3.1799998,-0.16999999,8.929999,0.0,-0.41,0.08,0.0,-0.41,0.08,1,Lying,4
2019-01-21,17:14:20,3.1799998,-0.16999999,8.929999,-0.17,-0.17,0.06,-0.17,-0.17,0.06,1,Lying,4
2019-01-21,17:14:20,3.35,-0.34999996,8.49,0.02,0.03,0.01,0.02,0.03,0.01,1,Lying,4
2019-01-21,17:14:20,3.35,-0.34999996,8.49,0.02,0.03,0.01,0.02,0.03,0.01,1,Lying,4
2019-01-21,17:14:20,1.7499999,-0.29999998,9.16,0.02,0.03,0.01,0.02,0.03,0.01,1,Lying,4
2019-01-21,17:14:20,1.7499999,-0.29999998,9.16,-0.02,0.42,-0.19999999,-0.02,0.42,-0.19999999,1,Lying,4
2019-01-21,17:14:20,1.8699999,-0.09999999400000001,8.879999,-0.02,0.42,-0.19999999,-0.02,0.42,-0.19999999,1,Lying,4
2019-01-21,17:14:21,1.8699999,-0.09999999400000001,8.879999,0.04,0.14999999,-0.02,0.04,0.14999999,-0.02,1,Lying,4
2019-01-21,17:14:21,2.06,-0.26,9.259999,0.04,0.14999999,-0.02,0.04,0.14999999,-0.02,1,Lying,4
2019-01-21,17:14:21,2.06,-0.26,9.259999,-0.02,-0.01,-0.04,-0.02,-0.01,-0.04,1,Lying,4
2019-01-21,17:14:21,2.27,0.19999999,8.87,-0.02,-0.01,-0.04,-0.02,-0.01,-0.04,1,Lying,4
2019-01-21,17:14:21,2.27,0.19999999,8.87,0.08,0.01,0.0,0.08,0.01,0.0,1,Lying,4
2019-01-21,17:14:21,2.1299999,0.100000024,8.82,0.08,0.01,0.0,0.08,0.01,0.0,1,Lying,4
2019-01-21,17:14:21,2.1299999,0.100000024,8.82,0.03,0.11,0.0,0.03,0.11,0.0,1,Lying,4
2019-01-21,17:14:21,2.1699998,0.0,9.219999000000001,0.03,0.11,0.0,0.03,0.11,0.0,1,Lying,4
2019-01-21,17:14:21,2.1699998,0.0,9.219999000000001,0.049999997000000004,0.14999999,-0.03,0.049999997000000004,0.14999999,-0.03,1,Lying,4
2019-01-21,17:14:21,1.3399999,0.23000002,8.639999000000001,0.049999997000000004,0.22,-0.02,0.049999997000000004,0.22,-0.02,1,Lying,4
2019-01-21,17:14:21,1.3399999,0.23000002,8.639999000000001,0.049999997000000004,0.22,-0.02,0.049999997000000004,0.22,-0.02,1,Lying,4
2019-01-21,17:14:21,2.1499999,0.09000003,9.28,0.049999997000000004,0.22,-0.02,0.049999997000000004,0.22,-0.02,1,Lying,4
2019-01-21,17:14:21,2.1499999,0.09000003,9.28,-0.01,0.07,0.0,-0.01,0.07,0.0,1,Lying,4
2019-01-21,17:14:21,1.66,0.26999998,8.62,-0.01,0.07,0.0,-0.01,0.07,0.0,1,Lying,4
2019-01-21,17:14:21,1.66,0.26999998,8.62,0.02,0.06,0.0,0.02,0.06,0.0,1,Lying,4
2019-01-21,17:14:21,1.81,-0.35999998,9.549999,0.02,0.06,0.0,0.02,0.06,0.0,1,Lying,4
2019-01-21,17:14:21,1.81,-0.35999998,9.549999,-0.06,0.01,-0.01,-0.06,0.01,-0.01,1,Lying,4
2019-01-21,17:14:21,2.1999998,0.37,8.74,-0.06,0.01,-0.01,-0.06,0.01,-0.01,1,Lying,4
2019-01-21,17:14:21,2.1999998,0.37,8.74,0.04,0.01,0.049999997000000004,0.04,0.01,0.049999997000000004,1,Lying,4
2019-01-21,17:14:21,2.1999998,-0.03999999,9.62,0.04,0.01,0.049999997000000004,0.04,0.01,0.049999997000000004,1,Lying,4
2019-01-21,17:14:21,2.1999998,-0.03999999,9.62,-0.07,0.089999996,0.0,-0.07,0.089999996,0.0,1,Lying,4
2019-01-21,17:14:21,1.31,-0.049999982000000005,8.98,-0.07,0.089999996,0.0,-0.07,0.089999996,0.0,1,Lying,4
2019-01-21,17:14:21,1.31,-0.049999982000000005,8.98,0.0,0.14999999,-0.04,0.0,0.14999999,-0.04,1,Lying,4
2019-01-21,17:14:21,1.79,0.11000001400000001,9.12,0.0,0.14999999,-0.04,0.0,0.14999999,-0.04,1,Lying,4
2019-01-21,17:14:21,1.79,0.11000001400000001,9.12,-0.01,0.04,0.01,-0.01,0.04,0.01,1,Lying,4
2019-01-21,17:14:21,1.8499999,0.050000012,9.219999000000001,-0.01,0.04,0.01,-0.01,0.04,0.01,1,Lying,4
2019-01-21,17:14:21,1.8499999,0.050000012,9.219999000000001,-0.03,0.0,0.0,-0.03,0.0,0.0,1,Lying,4
2019-01-21,17:14:21,1.5699999,0.06999999,9.15,-0.03,0.0,0.0,-0.03,0.0,0.0,1,Lying,4
2019-01-21,17:14:21,1.5699999,0.06999999,9.15,0.0,0.08,0.0,0.0,0.08,0.0,1,Lying,4
2019-01-21,17:14:21,1.67,-0.13999999,9.28,0.0,0.08,0.0,0.0,0.08,0.0,1,Lying,4
2019-01-21,17:14:21,1.67,-0.13999999,9.28,-0.02,0.03,0.0,-0.02,0.03,0.0,1,Lying,4
2019-01-21,17:14:21,1.8599999,0.07999998,8.87,-0.02,0.03,0.0,-0.02,0.03,0.0,1,Lying,4
2019-01-21,17:14:21,1.8599999,0.07999998,8.87,0.02,0.0,0.01,0.02,0.0,0.01,1,Lying,4
2019-01-21,17:14:21,1.8499999,0.04000002,9.019999499999999,0.02,0.0,0.01,0.02,0.0,0.01,1,Lying,4
2019-01-21,17:14:21,1.8499999,0.04000002,9.019999499999999,0.01,0.03,0.0,0.01,0.03,0.0,1,Lying,4
2019-01-21,17:14:21,1.55,0.050000012,9.21,0.01,0.08,0.0,0.01,0.08,0.0,1,Lying,4
2019-01-21,17:14:21,1.55,0.050000012,9.21,0.01,0.08,0.0,0.01,0.08,0.0,1,Lying,4
2019-01-21,17:14:21,1.4899999,0.11000001400000001,9.07,0.01,0.08,0.0,0.01,0.08,0.0,1,Lying,4
2019-01-21,17:14:21,1.4899999,0.11000001400000001,9.07,0.02,0.09999999400000001,0.0,0.02,0.09999999400000001,0.0,1,Lying,4
2019-01-21,17:14:21,1.4799999,0.09000003,9.28,0.02,0.09999999400000001,0.0,0.02,0.09999999400000001,0.0,1,Lying,4
2019-01-21,17:14:21,1.4799999,0.09000003,9.28,0.0,0.06,-0.01,0.0,0.06,-0.01,1,Lying,4
2019-01-21,17:14:22,1.4399998999999999,0.13,8.99,0.0,0.06,-0.01,0.0,0.06,-0.01,1,Lying,4
2019-01-21,17:14:22,1.4399998999999999,0.13,8.99,0.0,0.01,-0.01,0.0,0.01,-0.01,1,Lying,4
2019-01-21,17:14:22,1.66,0.0,9.179999,0.0,0.01,-0.01,0.0,0.01,-0.01,1,Lying,4
2019-01-21,17:14:22,1.66,0.0,9.179999,-0.01,0.0,0.0,-0.01,0.0,0.0,1,Lying,4
2019-01-21,17:14:22,1.4699999,0.100000024,8.95,-0.01,0.0,0.0,-0.01,0.0,0.0,1,Lying,4
2019-01-21,17:14:22,1.4699999,0.100000024,8.95,0.02,0.06,-0.01,0.02,0.06,-0.01,1,Lying,4
2019-01-21,17:14:22,1.5999999,0.060000002000000004,9.339999,0.02,0.06,-0.01,0.02,0.06,-0.01,1,Lying,4
2019-01-21,17:14:22,1.5999999,0.060000002000000004,9.339999,0.0,0.06,-0.01,0.0,0.06,-0.01,1,Lying,4
2019-01-21,17:14:22,1.5699999,0.23000002,9.049999,0.0,0.06,-0.01,0.0,0.06,-0.01,1,Lying,4
2019-01-21,17:14:22,1.5699999,0.23000002,9.049999,0.01,0.089999996,-0.02,0.01,0.089999996,-0.02,1,Lying,4
2019-01-21,17:14:22,1.2299999,0.00999999,9.299999,0.01,0.089999996,-0.02,0.01,0.089999996,-0.02,1,Lying,4
2019-01-21,17:14:22,1.2299999,0.00999999,9.299999,0.0,0.17,-0.03,0.0,0.17,-0.03,1,Lying,4
2019-01-21,17:14:22,1.03,0.120000005,8.94,0.0,0.17,-0.03,0.0,0.17,-0.03,1,Lying,4
2019-01-21,17:14:22,1.03,0.120000005,8.94,0.03,0.16,-0.03,0.03,0.16,-0.03,1,Lying,4
2019-01-21,17:14:22,1.2299999,0.18,9.059999000000001,0.03,0.16,-0.03,0.03,0.16,-0.03,1,Lying,4
2019-01-21,17:14:22,1.2299999,0.18,9.059999000000001,0.03,0.09999999400000001,0.0,0.03,0.09999999400000001,0.0,1,Lying,4
2019-01-21,17:14:22,1.3199999,0.19,9.2,0.03,0.09999999400000001,0.0,0.03,0.09999999400000001,0.0,1,Lying,4
2019-01-21,17:14:22,1.3199999,0.19,9.2,0.0,0.06,0.02,0.0,0.06,0.02,1,Lying,4
2019-01-21,17:14:22,1.17,0.17000002,9.04,0.0,0.06,0.02,0.0,0.06,0.02,1,Lying,4
2019-01-21,17:14:22,1.17,0.17000002,9.04,0.0,0.08,0.0,0.0,0.08,0.0,1,Lying,4
2019-01-21,17:14:22,0.99999994,0.18,9.009999,0.0,0.08,0.0,0.0,0.08,0.0,1,Lying,4
2019-01-21,17:14:22,0.99999994,0.18,9.009999,0.0,0.02,0.0,0.0,0.02,0.0,1,Lying,4
2019-01-21,17:14:22,1.2099999,0.100000024,9.03,0.0,0.02,0.0,0.0,0.02,0.0,1,Lying,4
2019-01-21,17:14:22,1.2099999,0.100000024,9.03,-0.01,0.0,-0.01,-0.01,0.0,-0.01,1,Lying,4
2019-01-21,17:14:22,1.31,-0.00999999,9.519999499999999,-0.01,0.0,-0.01,-0.01,0.0,-0.01,1,Lying,4
2019-01-21,17:14:22,1.31,-0.00999999,9.519999499999999,-0.03,0.02,-0.01,-0.03,0.02,-0.01,1,Lying,4
2019-01-21,17:14:22,1.05,0.19999999,8.94,0.02,0.08,-0.02,0.02,0.08,-0.02,1,Lying,4
2019-01-21,17:14:22,1.05,0.19999999,8.94,0.02,0.08,-0.02,0.02,0.08,-0.02,1,Lying,4
2019-01-21,17:14:22,0.97999996,-0.03999999,9.4,0.02,0.08,-0.02,0.02,0.08,-0.02,1,Lying,4
2019-01-21,17:14:22,0.97999996,-0.03999999,9.4,-0.04,0.04,-0.03,-0.04,0.04,-0.03,1,Lying,4
2019-01-21,17:14:22,1.2399999,0.20999998,9.099999,-0.04,0.04,-0.03,-0.04,0.04,-0.03,1,Lying,4
2019-01-21,17:14:22,1.2399999,0.20999998,9.099999,0.0,0.01,0.0,0.0,0.01,0.0,1,Lying,4
2019-01-21,17:14:22,0.92999995,-0.07999998,9.339999,0.0,0.01,0.0,0.0,0.01,0.0,1,Lying,4
2019-01-21,17:14:22,0.92999995,-0.07999998,9.339999,-0.01,0.049999997000000004,-0.03,-0.01,0.049999997000000004,-0.03,1,Lying,4
2019-01-21,17:14:22,1.5899999,0.3,8.96,0.07,0.049999997000000004,0.03,0.07,0.049999997000000004,0.03,1,Lying,4
2019-01-21,17:14:22,1.5899999,0.3,8.96,0.07,0.049999997000000004,0.03,0.07,0.049999997000000004,0.03,1,Lying,4
2019-01-21,17:14:22,0.91999996,0.26,9.12,0.02,0.28,0.03,0.02,0.28,0.03,1,Lying,4
2019-01-21,17:14:22,0.91999996,0.26,9.12,0.02,0.28,0.03,0.02,0.28,0.03,1,Lying,4
2019-01-21,17:14:22,0.47,0.04000002,9.49,0.02,0.28,0.03,0.02,0.28,0.03,1,Lying,4
2019-01-21,17:14:22,0.47,0.04000002,9.49,-0.03,0.32999998,-0.01,-0.03,0.32999998,-0.01,1,Lying,4
2019-01-21,17:14:22,0.26,-0.109999985,9.349999,-0.03,0.32999998,-0.01,-0.03,0.32999998,-0.01,1,Lying,4
2019-01-21,17:14:22,0.26,-0.109999985,9.349999,0.0,0.22999999,-0.03,0.0,0.22999999,-0.03,1,Lying,4
2019-01-21,17:14:22,0.4,0.07999998,9.17,0.0,0.22999999,-0.03,0.0,0.22999999,-0.03,1,Lying,4
2019-01-21,17:14:23,0.4,0.07999998,9.17,0.04,0.08,-0.01,0.04,0.08,-0.01,1,Lying,4
2019-01-21,17:14:23,0.59,0.24000001,9.23,0.04,0.08,-0.01,0.04,0.08,-0.01,1,Lying,4
2019-01-21,17:14:23,0.59,0.24000001,9.23,0.049999997000000004,0.07,0.01,0.049999997000000004,0.07,0.01,1,Lying,4
2019-01-21,17:14:23,0.48,0.32999998,9.179999,0.049999997000000004,0.07,0.01,0.049999997000000004,0.07,0.01,1,Lying,4
2019-01-21,17:14:23,0.48,0.32999998,9.179999,0.049999997000000004,0.17999999,0.02,0.049999997000000004,0.17999999,0.02,1,Lying,4
2019-01-21,17:14:23,0.31,0.3,9.33,0.049999997000000004,0.17999999,0.02,0.049999997000000004,0.17999999,0.02,1,Lying,4
2019-01-21,17:14:23,0.31,0.3,9.33,0.03,0.19999999,0.01,0.03,0.19999999,0.01,1,Lying,4
2019-01-21,17:14:23,0.1,0.16000003,9.219999000000001,0.03,0.19999999,0.01,0.03,0.19999999,0.01,1,Lying,4
2019-01-21,17:14:23,0.1,0.16000003,9.219999000000001,0.01,0.11,0.0,0.01,0.11,0.0,1,Lying,4
2019-01-21,17:14:23,0.31,0.25,9.2,0.01,0.11,0.0,0.01,0.11,0.0,1,Lying,4
2019-01-21,17:14:23,0.31,0.25,9.2,0.02,0.04,0.0,0.02,0.04,0.0,1,Lying,4
2019-01-21,17:14:23,0.25,0.27999997,9.129999,0.02,0.04,0.0,0.02,0.04,0.0,1,Lying,4
2019-01-21,17:14:23,0.25,0.27999997,9.129999,0.02,0.06,0.0,0.02,0.06,0.0,1,Lying,4
2019-01-21,17:14:23,0.22,0.33999997,9.28,0.02,0.06,0.0,0.02,0.06,0.0,1,Lying,4
2019-01-21,17:14:23,0.22,0.33999997,9.28,0.02,0.089999996,0.0,0.02,0.089999996,0.0,1,Lying,4
2019-01-21,17:14:23,0.049999997000000004,0.29000002,9.29,0.02,0.089999996,0.0,0.02,0.089999996,0.0,1,Lying,4
2019-01-21,17:14:23,0.049999997000000004,0.29000002,9.29,0.01,0.11,0.0,0.01,0.11,0.0,1,Lying,4
2019-01-21,17:14:23,-0.03,0.25,9.28,0.01,0.11,0.0,0.01,0.11,0.0,1,Lying,4
2019-01-21,17:14:23,-0.03,0.25,9.28,0.0,0.07,0.0,0.0,0.07,0.0,1,Lying,4
2019-01-21,17:14:23,0.03,0.27999997,9.21,0.0,0.07,0.0,0.0,0.07,0.0,1,Lying,4
2019-01-21,17:14:23,0.03,0.27999997,9.21,0.0,0.02,0.0,0.0,0.02,0.0,1,Lying,4
2019-01-21,17:14:23,0.16,0.27999997,9.21,0.0,0.02,0.0,0.0,0.02,0.0,1,Lying,4
2019-01-21,17:14:23,0.16,0.27999997,9.21,0.0,0.0,0.0,0.0,0.0,0.0,1,Lying,4
2019-01-21,17:14:23,0.14999999,0.3,9.2,0.0,0.0,0.0,0.0,0.0,0.0,1,Lying,4
2019-01-21,17:14:23,0.14999999,0.3,9.2,0.01,0.03,0.01,0.01,0.03,0.01,1,Lying,4
2019-01-21,17:14:23,-0.03,0.27999997,9.32,0.01,0.03,0.01,0.01,0.03,0.01,1,Lying,4
2019-01-21,17:14:23,-0.03,0.27999997,9.32,0.0,0.08,0.0,0.0,0.08,0.0,1,Lying,4
2019-01-21,17:14:23,-0.16999999,0.32,9.16,0.0,0.08,0.0,0.0,0.08,0.0,1,Lying,4
2019-01-21,17:14:23,-0.16999999,0.32,9.16,0.01,0.06,0.0,0.01,0.06,0.0,1,Lying,4
2019-01-21,17:14:23,0.06,0.36,9.25,0.01,0.06,0.0,0.01,0.06,0.0,1,Lying,4
2019-01-21,17:14:23,0.06,0.36,9.25,0.0,-0.04,0.0,0.0,-0.04,0.0,1,Lying,4
2019-01-21,17:14:23,0.19,0.26999998,9.21,0.0,-0.04,0.0,0.0,-0.04,0.0,1,Lying,4
2019-01-21,17:14:23,0.19,0.26999998,9.21,0.0,-0.01,0.0,0.0,-0.01,0.0,1,Lying,4
2019-01-21,17:14:23,-0.059999995,0.27999997,9.19,0.0,-0.01,0.0,0.0,-0.01,0.0,1,Lying,4
2019-01-21,17:14:23,-0.059999995,0.27999997,9.19,0.0,0.06,-0.01,0.0,0.06,-0.01,1,Lying,4
2019-01-21,17:14:23,-0.049999997000000004,0.27999997,9.19,0.0,0.06,-0.01,0.0,0.06,-0.01,1,Lying,4
2019-01-21,17:14:23,-0.049999997000000004,0.27999997,9.19,0.0,0.03,-0.01,0.0,0.03,-0.01,1,Lying,4
2019-01-21,17:14:23,0.03,0.31,9.25,0.0,0.03,-0.01,0.0,0.03,-0.01,1,Lying,4
2019-01-21,17:14:23,0.03,0.31,9.25,0.0,0.0,0.0,0.0,0.0,0.0,1,Lying,4
2019-01-21,17:14:23,-0.03,0.29000002,9.25,0.0,0.0,0.0,0.0,0.0,0.0,1,Lying,4
2019-01-21,17:14:23,-0.03,0.29000002,9.25,0.0,0.01,0.0,0.0,0.01,0.0,1,Lying,4
2019-01-21,17:14:24,0.03,0.26,9.24,0.0,0.01,0.0,0.0,0.01,0.0,1,Lying,4
2019-01-21,17:14:24,0.03,0.26,9.24,0.0,0.01,0.0,0.0,0.01,0.0,1,Lying,4
2019-01-21,17:14:24,0.0,0.26,9.28,0.0,0.01,0.0,0.0,0.01,0.0,1,Lying,4
2019-01-21,17:14:24,0.0,0.26,9.28,0.0,0.02,0.0,0.0,0.02,0.0,1,Lying,4
2019-01-21,17:14:24,-0.14,0.29000002,9.32,0.0,0.02,0.0,0.0,0.02,0.0,1,Lying,4
2019-01-21,17:14:24,-0.14,0.29000002,9.32,0.0,0.04,0.0,0.0,0.04,0.0,1,Lying,4
2019-01-21,17:14:24,-0.14,0.33999997,9.509999,0.0,0.049999997000000004,0.0,0.0,0.049999997000000004,0.0,1,Lying,4
2019-01-21,17:14:24,-0.14,0.33999997,9.509999,0.0,0.049999997000000004,0.0,0.0,0.049999997000000004,0.0,1,Lying,4
2019-01-21,17:14:24,-0.11999999,0.3,9.19,0.0,0.049999997000000004,0.0,0.0,0.049999997000000004,0.0,1,Lying,4
2019-01-21,17:14:24,-0.11999999,0.3,9.19,0.0,0.04,0.0,0.0,0.04,0.0,1,Lying,4
2019-01-21,17:14:24,-0.16,0.32999998,9.17,0.0,0.04,0.0,0.0,0.04,0.0,1,Lying,4
2019-01-21,17:14:24,-0.16,0.32999998,9.17,0.0,0.03,0.0,0.0,0.03,0.0,1,Lying,4
2019-01-21,17:14:24,-0.14,0.26,9.25,-0.049999997000000004,-0.01,-0.02,-0.049999997000000004,-0.01,-0.02,1,Lying,4
2019-01-21,17:14:24,-0.14,0.26,9.25,-0.049999997000000004,-0.01,-0.02,-0.049999997000000004,-0.01,-0.02,1,Lying,4
2019-01-21,17:14:24,-0.089999996,0.32,9.61,-0.049999997000000004,-0.01,-0.02,-0.049999997000000004,-0.01,-0.02,1,Lying,4
2019-01-21,17:14:24,-0.089999996,0.32,9.61,-0.01,-0.04,0.0,-0.01,-0.04,0.0,1,Lying,4
2019-01-21,17:14:24,0.04,0.26999998,9.29,-0.01,-0.04,0.0,-0.01,-0.04,0.0,1,Lying,4
2019-01-21,17:14:24,0.04,0.26999998,9.29,0.0,-0.01,0.0,0.0,-0.01,0.0,1,Lying,4
2019-01-21,17:14:24,-0.01,0.37,9.179999,0.0,-0.01,0.0,0.0,-0.01,0.0,1,Lying,4
2019-01-21,17:14:24,-0.01,0.37,9.179999,0.01,0.04,0.0,0.01,0.04,0.0,1,Lying,4
2019-01-21,17:14:24,-0.26999998,0.31,9.139999000000001,0.01,0.04,0.0,0.01,0.04,0.0,1,Lying,4
2019-01-21,17:14:24,-0.26999998,0.31,9.139999000000001,-0.01,0.04,0.0,-0.01,0.04,0.0,1,Lying,4
2019-01-21,17:14:24,-0.22,0.25,9.179999,-0.01,0.04,0.0,-0.01,0.04,0.0,1,Lying,4
2019-01-21,17:14:24,-0.22,0.25,9.179999,-0.03,0.0,0.0,-0.03,0.0,0.0,1,Lying,4
2019-01-21,17:14:24,-0.16,0.20999998,9.29,-0.03,0.0,0.0,-0.03,0.0,0.0,1,Lying,4
2019-01-21,17:14:24,-0.16,0.20999998,9.29,-0.06,-0.01,0.0,-0.06,-0.01,0.0,1,Lying,4
2019-01-21,17:14:24,-0.049999997000000004,0.32999998,9.21,-0.06,-0.01,0.0,-0.06,-0.01,0.0,1,Lying,4
2019-01-21,17:14:24,-0.049999997000000004,0.32999998,9.21,-0.06,-0.04,-0.02,-0.06,-0.04,-0.02,1,Lying,4
2019-01-21,17:14:24,-0.06999999,0.11000001400000001,9.69,-0.06,-0.04,-0.02,-0.06,-0.04,-0.02,1,Lying,4
2019-01-21,17:14:24,-0.06999999,0.11000001400000001,9.69,-0.03,0.0,0.0,-0.03,0.0,0.0,1,Lying,4
2019-01-21,17:14:24,-0.059999995,0.19,9.25,-0.04,0.0,-0.03,-0.04,0.0,-0.03,1,Lying,4
2019-01-21,17:14:24,-0.059999995,0.19,9.25,-0.04,0.0,-0.03,-0.04,0.0,-0.03,1,Lying,4
2019-01-21,17:14:24,-0.06999999,0.17000002,9.259999,-0.04,0.0,-0.03,-0.04,0.0,-0.03,1,Lying,4
2019-01-21,17:14:24,-0.06999999,0.17000002,9.259999,-0.02,0.0,0.0,-0.02,0.0,0.0,1,Lying,4
2019-01-21,17:14:24,-0.04,0.07999998,9.25,-0.02,0.0,0.0,-0.02,0.0,0.0,1,Lying,4
2019-01-21,17:14:24,-0.04,0.07999998,9.25,-0.01,0.01,0.0,-0.01,0.01,0.0,1,Lying,4
2019-01-21,17:14:24,-0.11,0.13999999,9.179999,-0.01,0.01,0.0,-0.01,0.01,0.0,1,Lying,4
2019-01-21,17:14:24,-0.11,0.13999999,9.179999,0.0,0.03,0.0,0.0,0.03,0.0,1,Lying,4
2019-01-21,17:14:24,-0.14,0.19,9.19,0.0,0.03,0.0,0.0,0.03,0.0,1,Lying,4
2019-01-21,17:14:24,-0.14,0.19,9.19,0.0,0.02,0.0,0.0,0.02,0.0,1,Lying,4
2019-01-21,17:14:24,-0.16,0.14999998,9.349999,0.0,0.02,0.0,0.0,0.02,0.0,1,Lying,4
2019-01-21,17:14:24,-0.16,0.14999998,9.349999,0.0,0.049999997000000004,0.0,0.0,0.049999997000000004,0.0,1,Lying,4
2019-01-21,17:14:24,-0.26999998,0.16000003,9.179999,0.0,0.049999997000000004,0.0,0.0,0.049999997000000004,0.0,1,Lying,4
2019-01-21,17:14:25,-0.26999998,0.16000003,9.179999,0.01,0.03,0.0,0.01,0.03,0.0,1,Lying,4
2019-01-21,17:14:25,-0.059999995,0.17000002,9.259999,0.01,0.03,0.0,0.01,0.03,0.0,1,Lying,4
2019-01-21,17:14:25,-0.059999995,0.17000002,9.259999,0.0,0.0,0.01,0.0,0.0,0.01,1,Lying,4
2019-01-21,17:14:25,-0.16999999,0.09000003,9.24,0.0,0.0,0.01,0.0,0.0,0.01,1,Lying,4
2019-01-21,17:14:25,-0.16999999,0.09000003,9.24,0.0,0.03,0.0,0.0,0.03,0.0,1,Lying,4
2019-01-21,17:14:25,-0.17999999,0.16000003,9.269999499999999,0.0,0.03,0.0,0.0,0.03,0.0,1,Lying,4
2019-01-21,17:14:25,-0.17999999,0.16000003,9.269999499999999,0.01,0.03,0.0,0.01,0.03,0.0,1,Lying,4
2019-01-21,17:14:25,-0.22999999,0.18,9.19,0.01,0.03,0.0,0.01,0.03,0.0,1,Lying,4
2019-01-21,17:14:25,-0.22999999,0.18,9.19,0.01,0.03,0.0,0.01,0.03,0.0,1,Lying,4
2019-01-21,17:14:25,-0.22,0.20999998,9.28,0.01,0.03,0.0,0.01,0.03,0.0,1,Lying,4
2019-01-21,17:14:25,-0.22,0.20999998,9.28,0.0,0.02,0.0,0.0,0.02,0.0,1,Lying,4
2019-01-21,17:14:25,-0.21,0.19,9.28,0.0,0.02,0.0,0.0,0.02,0.0,1,Lying,4
2019-01-21,17:14:25,-0.21,0.19,9.28,0.0,0.01,0.0,0.0,0.01,0.0,1,Lying,4
2019-01-21,17:14:25,-0.26999998,0.19,9.25,0.0,0.01,0.0,0.0,0.01,0.0,1,Lying,4
2019-01-21,17:14:25,-0.26999998,0.19,9.25,0.0,0.0,0.0,0.0,0.0,0.0,1,Lying,4
2019-01-21,17:14:25,-0.21,0.19999999,9.21,0.0,0.0,0.0,0.0,0.0,0.0,1,Lying,4
2019-01-21,17:14:25,-0.21,0.19999999,9.21,0.0,0.0,0.0,0.0,0.0,0.0,1,Lying,4
2019-01-21,17:14:25,-0.16999999,0.19999999,9.299999,0.0,0.0,0.0,0.0,0.0,0.0,1,Lying,4
2019-01-21,17:14:25,-0.16999999,0.19999999,9.299999,0.0,0.0,0.0,0.0,0.0,0.0,1,Lying,4
2019-01-21,17:14:25,-0.19,0.16000003,9.32,0.0,0.0,0.0,0.0,0.0,0.0,1,Lying,4
2019-01-21,17:14:25,-0.19,0.16000003,9.32,0.01,0.01,0.0,0.01,0.01,0.0,1,Lying,4
2019-01-21,17:14:25,-0.26999998,0.19,9.24,0.01,0.01,0.0,0.01,0.01,0.0,1,Lying,4
2019-01-21,17:14:25,-0.26999998,0.19,9.24,0.0,0.02,0.0,0.0,0.02,0.0,1,Lying,4
2019-01-21,17:14:25,-0.28,0.20999998,9.25,0.0,0.02,0.0,0.0,0.02,0.0,1,Lying,4
2019-01-21,17:14:25,-0.28,0.20999998,9.25,0.0,0.01,0.0,0.0,0.01,0.0,1,Lying,4
2019-01-21,17:14:25,-0.17999999,0.19,9.21,0.0,0.01,0.0,0.0,0.01,0.0,1,Lying,4
2019-01-21,17:14:25,-0.17999999,0.19,9.21,0.0,0.01,0.0,0.0,0.01,0.0,1,Lying,4
2019-01-21,17:14:25,-0.28,0.18,9.37,0.0,0.01,0.0,0.0,0.01,0.0,1,Lying,4
2019-01-21,17:14:25,-0.28,0.18,9.37,0.0,0.02,0.0,0.0,0.02,0.0,1,Lying,4
2019-01-21,17:14:25,-0.32,0.23000002,9.17,0.0,0.02,0.0,0.0,0.02,0.0,1,Lying,4
2019-01-21,17:14:25,-0.32,0.23000002,9.17,0.0,0.0,0.0,0.0,0.0,0.0,1,Lying,4
2019-01-21,17:14:25,-0.14999999,0.20999998,9.29,0.0,0.0,0.0,0.0,0.0,0.0,1,Lying,4
2019-01-21,17:14:25,-0.14999999,0.20999998,9.29,0.0,-0.03,0.0,0.0,-0.03,0.0,1,Lying,4
2019-01-21,17:14:25,-0.17999999,0.20999998,9.24,0.0,-0.03,0.0,0.0,-0.03,0.0,1,Lying,4
2019-01-21,17:14:25,-0.17999999,0.20999998,9.24,0.0,-0.01,0.0,0.0,-0.01,0.0,1,Lying,4
2019-01-21,17:14:25,-0.26999998,0.14999998,9.29,0.0,-0.01,0.0,0.0,-0.01,0.0,1,Lying,4
2019-01-21,17:14:25,-0.26999998,0.14999998,9.29,0.0,0.01,0.0,0.0,0.01,0.0,1,Lying,4
2019-01-21,17:14:25,-0.26,0.19999999,9.269999499999999,0.0,0.01,0.0,0.0,0.01,0.0,1,Lying,4
2019-01-21,17:14:25,-0.26,0.19999999,9.269999499999999,0.0,0.0,-0.01,0.0,0.0,-0.01,1,Lying,4
2019-01-21,17:14:25,-0.16999999,0.19999999,9.25,0.0,0.0,-0.01,0.0,0.0,-0.01,1,Lying,4
2019-01-21,17:14:25,-0.16999999,0.19999999,9.25,0.0,0.0,-0.01,0.0,0.0,-0.01,1,Lying,4
2019-01-21,17:14:25,-0.39999998,0.13999999,9.259999,0.0,0.0,-0.01,0.0,0.0,-0.01,1,Lying,4
2019-01-21,17:14:25,-0.39999998,0.13999999,9.259999,0.0,0.02,-0.01,0.0,0.02,-0.01,1,Lying,4
2019-01-21,17:14:25,-0.35999998,0.26,9.379999,0.0,0.02,-0.01,0.0,0.02,-0.01,1,Lying,4
2019-01-21,17:14:25,-0.35999998,0.26,9.379999,0.01,0.02,0.0,0.01,0.02,0.0,1,Lying,4
2019-01-21,17:14:25,-0.26,0.25,9.32,0.01,0.02,0.0,0.01,0.02,0.0,1,Lying,4
2019-01-21,17:14:26,-0.26,0.25,9.32,0.01,-0.01,0.01,0.01,-0.01,0.01,1,Lying,4
2019-01-21,17:14:26,-0.17999999,0.19999999,9.16,0.01,-0.01,0.01,0.01,-0.01,0.01,1,Lying,4
2019-01-21,17:14:26,-0.17999999,0.19999999,9.16,0.0,-0.02,0.0,0.0,-0.02,0.0,1,Lying,4
2019-01-21,17:14:26,-0.14999999,0.13,9.269999499999999,0.0,-0.02,0.0,0.0,-0.02,0.0,1,Lying,4
2019-01-21,17:14:26,-0.14999999,0.13,9.269999499999999,0.0,-0.02,0.0,0.0,-0.02,0.0,1,Lying,4
2019-01-21,17:14:26,-0.09999999400000001,0.13999999,9.17,0.0,-0.02,0.0,0.0,-0.02,0.0,1,Lying,4
2019-01-21,17:14:26,-0.09999999400000001,0.13999999,9.17,0.0,-0.01,0.0,0.0,-0.01,0.0,1,Lying,4
2019-01-21,17:14:26,-0.23999998,0.26,9.2,0.0,0.01,0.0,0.0,0.01,0.0,1,Lying,4
2019-01-21,17:14:26,-0.23999998,0.26,9.2,0.0,0.01,0.0,0.0,0.01,0.0,1,Lying,4
2019-01-21,17:14:26,-0.29999998,0.3,9.419999,0.0,0.01,0.0,0.0,0.01,0.0,1,Lying,4
2019-01-21,17:14:26,-0.29999998,0.3,9.419999,0.0,0.04,-0.02,0.0,0.04,-0.02,1,Lying,4
2019-01-21,17:14:26,-0.39,0.20999998,9.33,0.0,0.04,-0.02,0.0,0.04,-0.02,1,Lying,4
2019-01-21,17:14:26,-0.39,0.20999998,9.33,0.01,0.01,-0.01,0.01,0.01,-0.01,1,Lying,4
2019-01-21,17:14:26,-0.26999998,0.24000001,9.12,0.01,0.01,-0.01,0.01,0.01,-0.01,1,Lying,4
2019-01-21,17:14:26,-0.26999998,0.24000001,9.12,0.0,0.0,0.0,0.0,0.0,0.0,1,Lying,4
2019-01-21,17:14:26,-0.19999999,0.20999998,9.259999,0.0,0.0,0.0,0.0,0.0,0.0,1,Lying,4
2019-01-21,17:14:26,-0.19999999,0.20999998,9.259999,-0.02,-0.01,0.0,-0.02,-0.01,0.0,1,Lying,4
2019-01-21,17:14:26,-0.09999999400000001,0.27999997,9.33,-0.02,-0.01,0.0,-0.02,-0.01,0.0,1,Lying,4
2019-01-21,17:14:26,-0.09999999400000001,0.27999997,9.33,-0.03,-0.02,-0.02,-0.03,-0.02,-0.02,1,Lying,4
2019-01-21,17:14:26,-0.32,0.19999999,9.12,-0.03,-0.02,-0.02,-0.03,-0.02,-0.02,1,Lying,4
2019-01-21,17:14:26,-0.32,0.19999999,9.12,0.0,0.049999997000000004,0.0,0.0,0.049999997000000004,0.0,1,Lying,4
2019-01-21,17:14:26,-0.39,0.24000001,9.19,0.0,0.049999997000000004,0.0,0.0,0.049999997000000004,0.0,1,Lying,4
2019-01-21,17:14:26,-0.39,0.24000001,9.19,-0.02,0.06,0.04,-0.02,0.06,0.04,1,Lying,4
2019-01-21,17:14:26,-0.26999998,0.20999998,9.129999,-0.02,0.06,0.04,-0.02,0.06,0.04,1,Lying,4
2019-01-21,17:14:26,-0.26999998,0.20999998,9.129999,-0.089999996,0.08,0.02,-0.089999996,0.08,0.02,1,Lying,4
2019-01-21,17:14:26,-0.52000004,0.32,9.21,-0.089999996,0.08,0.02,-0.089999996,0.08,0.02,1,Lying,4
2019-01-21,17:14:26,-0.52000004,0.32,9.21,-0.089999996,0.14,0.01,-0.089999996,0.14,0.01,1,Lying,4
2019-01-21,17:14:26,-0.7,0.07999998,9.429999,-0.089999996,0.14,0.01,-0.089999996,0.14,0.01,1,Lying,4
2019-01-21,17:14:26,-0.7,0.07999998,9.429999,-0.06,0.049999997000000004,0.04,-0.06,0.049999997000000004,0.04,1,Lying,4
2019-01-21,17:14:26,-0.45,-0.01999998,9.129999,-0.06,0.049999997000000004,0.04,-0.06,0.049999997000000004,0.04,1,Lying,4
2019-01-21,17:14:26,-0.45,-0.01999998,9.129999,-0.01,-0.02,0.06,-0.01,-0.02,0.06,1,Lying,4
2019-01-21,17:14:26,-0.049999997000000004,-0.09,9.269999499999999,-0.01,-0.02,0.06,-0.01,-0.02,0.06,1,Lying,4
2019-01-21,17:14:26,-0.049999997000000004,-0.09,9.269999499999999,0.0,-0.12,0.04,0.0,-0.12,0.04,1,Lying,4
2019-01-21,17:14:26,0.06,-0.09999999400000001,9.259999,0.0,-0.12,0.04,0.0,-0.12,0.04,1,Lying,4
2019-01-21,17:14:26,0.06,-0.09999999400000001,9.259999,-0.01,-0.17,-0.01,-0.01,-0.17,-0.01,1,Lying,4
2019-01-21,17:14:26,0.03,0.0,9.04,-0.01,-0.17,-0.01,-0.01,-0.17,-0.01,1,Lying,4
2019-01-21,17:14:26,0.03,0.0,9.04,-0.01,-0.11,-0.03,-0.01,-0.11,-0.03,1,Lying,4
2019-01-21,17:14:26,0.03,-0.07999998,9.089999,-0.03,-0.06,-0.049999997000000004,-0.03,-0.06,-0.049999997000000004,1,Lying,4
2019-01-21,17:14:26,0.03,-0.07999998,9.089999,-0.03,-0.06,-0.049999997000000004,-0.03,-0.06,-0.049999997000000004,1,Lying,4
2019-01-21,17:14:26,0.32,-0.06999999,9.339999,-0.03,-0.06,-0.049999997000000004,-0.03,-0.06,-0.049999997000000004,1,Lying,4
2019-01-21,17:14:26,0.32,-0.06999999,9.339999,0.0,-0.03,-0.06,0.0,-0.03,-0.06,1,Lying,4
2019-01-21,17:14:26,-0.35999998,-0.00999999,9.519999499999999,0.0,-0.03,-0.06,0.0,-0.03,-0.06,1,Lying,4
2019-01-21,17:14:26,-0.35999998,-0.00999999,9.519999499999999,0.0,0.16,-0.089999996,0.0,0.16,-0.089999996,1,Lying,4
2019-01-21,17:14:26,-0.8,0.18,9.23,0.0,0.16,-0.089999996,0.0,0.16,-0.089999996,1,Lying,4
2019-01-21,17:14:27,-0.8,0.18,9.23,0.04,0.25,-0.06,0.04,0.25,-0.06,1,Lying,4
2019-01-21,17:14:27,-0.90000004,0.3,9.24,0.04,0.25,-0.06,0.04,0.25,-0.06,1,Lying,4
2019-01-21,17:14:27,-0.90000004,0.3,9.24,0.01,0.07,-0.03,0.01,0.07,-0.03,1,Lying,4
2019-01-21,17:14:27,-0.67,-0.060000002000000004,9.269999499999999,0.01,0.07,-0.03,0.01,0.07,-0.03,1,Lying,4
2019-01-21,17:14:27,-0.67,-0.060000002000000004,9.269999499999999,0.0,0.0,0.01,0.0,0.0,0.01,1,Lying,4
2019-01-21,17:14:27,-0.54,0.19,9.299999,0.0,0.0,0.01,0.0,0.0,0.01,1,Lying,4
2019-01-21,17:14:27,-0.54,0.19,9.299999,0.02,0.0,0.02,0.02,0.0,0.02,1,Lying,4
2019-01-21,17:14:27,-0.28,0.25,9.179999,0.02,0.0,0.02,0.02,0.0,0.02,1,Lying,4
2019-01-21,17:14:27,-0.28,0.25,9.179999,0.01,0.01,0.02,0.01,0.01,0.02,1,Lying,4
2019-01-21,17:14:27,-0.66,-0.03999999,9.32,0.01,0.01,0.02,0.01,0.01,0.02,1,Lying,4
2019-01-21,17:14:27,-0.66,-0.03999999,9.32,0.0,0.02,0.0,0.0,0.02,0.0,1,Lying,4
2019-01-21,17:14:27,-0.29999998,0.06999999,9.36,0.0,0.02,0.0,0.0,0.02,0.0,1,Lying,4
2019-01-21,17:14:27,-0.29999998,0.06999999,9.36,0.01,-0.07,0.01,0.01,-0.07,0.01,1,Lying,4
2019-01-21,17:14:27,-0.22,0.18,9.129999,0.01,-0.07,0.01,0.01,-0.07,0.01,1,Lying,4
2019-01-21,17:14:27,-0.22,0.18,9.129999,0.02,-0.03,0.0,0.02,-0.03,0.0,1,Lying,4
2019-01-21,17:14:27,-0.29,0.16000003,9.23,0.02,-0.03,0.0,0.02,-0.03,0.0,1,Lying,4
2019-01-21,17:14:27,-0.29,0.16000003,9.23,0.02,0.0,0.0,0.02,0.0,0.0,1,Lying,4
2019-01-21,17:14:27,-0.51,0.07999998,9.28,0.02,0.0,0.0,0.02,0.0,0.0,1,Lying,4
2019-01-21,17:14:27,-0.51,0.07999998,9.28,0.01,0.04,0.0,0.01,0.04,0.0,1,Lying,4
2019-01-21,17:14:27,-0.53000003,0.01999998,9.23,0.01,0.04,0.0,0.01,0.04,0.0,1,Lying,4
2019-01-21,17:14:27,-0.53000003,0.01999998,9.23,0.01,0.01,0.0,0.01,0.01,0.0,1,Lying,4
2019-01-21,17:14:27,-0.47,0.06999999,9.309999000000001,0.01,0.01,0.0,0.01,0.01,0.0,1,Lying,4
2019-01-21,17:14:27,-0.47,0.06999999,9.309999000000001,0.02,0.01,0.0,0.02,0.01,0.0,1,Lying,4
2019-01-21,17:14:27,-0.57,0.26,9.179999,0.03,0.02,0.0,0.03,0.02,0.0,1,Lying,4
2019-01-21,17:14:27,-0.57,0.26,9.179999,0.03,0.02,0.0,0.03,0.02,0.0,1,Lying,4
2019-01-21,17:14:27,-0.64,0.19999999,9.269999499999999,0.03,0.02,0.0,0.03,0.02,0.0,1,Lying,4
2019-01-21,17:14:27,-0.64,0.19999999,9.269999499999999,0.0,0.049999997000000004,0.0,0.0,0.049999997000000004,0.0,1,Lying,4
2019-01-21,17:14:27,-0.73,0.11000001400000001,9.24,0.0,0.049999997000000004,0.0,0.0,0.049999997000000004,0.0,1,Lying,4
2019-01-21,17:14:27,-0.73,0.11000001400000001,9.24,0.01,0.01,0.0,0.01,0.01,0.0,1,Lying,4
2019-01-21,17:14:27,-0.59000003,0.19999999,9.269999499999999,0.01,0.01,0.0,0.01,0.01,0.0,1,Lying,4
2019-01-21,17:14:27,-0.59000003,0.19999999,9.269999499999999,0.01,0.0,0.0,0.01,0.0,0.0,1,Lying,4
2019-01-21,17:14:27,-0.63,0.20999998,9.2,0.01,0.0,0.0,0.01,0.0,0.0,1,Lying,4
2019-01-21,17:14:27,-0.63,0.20999998,9.2,0.01,-0.01,0.0,0.01,-0.01,0.0,1,Lying,4
2019-01-21,17:14:27,-0.48999998,0.17000002,9.28,0.01,-0.01,0.0,0.01,-0.01,0.0,1,Lying,4
2019-01-21,17:14:27,-0.48999998,0.17000002,9.28,0.0,-0.03,0.0,0.0,-0.03,0.0,1,Lying,4
2019-01-21,17:14:27,-0.29,0.120000005,9.219999000000001,0.0,-0.03,0.0,0.0,-0.03,0.0,1,Lying,4
2019-01-21,17:14:27,-0.29,0.120000005,9.219999000000001,0.0,-0.04,0.0,0.0,-0.04,0.0,1,Lying,4
2019-01-21,17:14:27,-0.48,0.100000024,9.32,0.0,-0.04,0.0,0.0,-0.04,0.0,1,Lying,4
2019-01-21,17:14:27,-0.48,0.100000024,9.32,0.02,0.01,-0.01,0.02,0.01,-0.01,1,Lying,4
2019-01-21,17:14:27,-0.63,0.18,9.139999000000001,0.02,0.01,-0.01,0.02,0.01,-0.01,1,Lying,4
2019-01-21,17:14:27,-0.63,0.18,9.139999000000001,0.02,0.04,-0.01,0.02,0.04,-0.01,1,Lying,4
2019-01-21,17:14:27,-0.64,0.19,9.11,0.02,0.04,-0.01,0.02,0.04,-0.01,1,Lying,4
2019-01-21,17:14:27,-0.64,0.19,9.11,0.01,0.01,0.0,0.01,0.01,0.0,1,Lying,4
2019-01-21,17:14:27,-0.58000004,0.24000001,9.25,0.01,0.01,0.0,0.01,0.01,0.0,1,Lying,4
2019-01-21,17:14:27,-0.58000004,0.24000001,9.25,0.01,0.0,0.0,0.01,0.0,0.0,1,Lying,4
2019-01-21,17:14:27,-0.57,0.26999998,9.19,0.01,0.0,0.0,0.01,0.0,0.0,1,Lying,4
2019-01-21,17:14:28,-0.57,0.26999998,9.19,0.01,0.0,0.01,0.01,0.0,0.01,1,Lying,4
2019-01-21,17:14:28,-0.58000004,0.19,9.179999,0.01,0.0,0.01,0.01,0.0,0.01,1,Lying,4
2019-01-21,17:14:28,-0.58000004,0.19,9.179999,-0.01,-0.02,0.0,-0.01,-0.02,0.0,1,Lying,4
2019-01-21,17:14:28,-0.45,0.13999999,9.28,-0.01,-0.02,0.0,-0.01,-0.02,0.0,1,Lying,4
2019-01-21,17:14:28,-0.45,0.13999999,9.28,-0.01,-0.06,0.0,-0.01,-0.06,0.0,1,Lying,4
2019-01-21,17:14:28,-0.14,0.19,9.21,-0.01,-0.06,0.0,-0.01,-0.06,0.0,1,Lying,4
2019-01-21,17:14:28,-0.14,0.19,9.21,-0.01,-0.07,0.0,-0.01,-0.07,0.0,1,Lying,4
2019-01-21,17:14:28,-0.28,0.22000003,9.19,-0.01,-0.07,0.0,-0.01,-0.07,0.0,1,Lying,4
2019-01-21,17:14:28,-0.28,0.22000003,9.19,-0.02,0.0,-0.02,-0.02,0.0,-0.02,1,Lying,4
2019-01-21,17:14:28,-0.41,0.18,9.219999000000001,-0.02,0.0,-0.02,-0.02,0.0,-0.02,1,Lying,4
2019-01-21,17:14:28,-0.41,0.18,9.219999000000001,-0.03,0.02,-0.03,-0.03,0.02,-0.03,1,Lying,4
2019-01-21,17:14:28,-0.49999997,0.100000024,9.33,-0.03,0.02,-0.03,-0.03,0.02,-0.03,1,Lying,4
2019-01-21,17:14:28,-0.49999997,0.100000024,9.33,-0.02,0.049999997000000004,-0.03,-0.02,0.049999997000000004,-0.03,1,Lying,4
2019-01-21,17:14:28,-0.64,0.22000003,9.309999000000001,-0.02,0.049999997000000004,-0.03,-0.02,0.049999997000000004,-0.03,1,Lying,4
2019-01-21,17:14:28,-0.64,0.22000003,9.309999000000001,-0.01,0.04,-0.02,-0.01,0.04,-0.02,1,Lying,4
2019-01-21,17:14:28,-0.52000004,0.16000003,9.19,-0.01,0.04,-0.02,-0.01,0.04,-0.02,1,Lying,4
2019-01-21,17:14:28,-0.52000004,0.16000003,9.19,-0.01,0.0,0.0,-0.01,0.0,0.0,1,Lying,4
2019-01-21,17:14:28,-0.38,0.19999999,9.179999,-0.01,0.0,0.0,-0.01,0.0,0.0,1,Lying,4
2019-01-21,17:14:28,-0.38,0.19999999,9.179999,-0.02,-0.02,0.0,-0.02,-0.02,0.0,1,Lying,4
2019-01-21,17:14:28,-0.45999998,0.07999998,9.219999000000001,-0.02,-0.02,0.0,-0.02,-0.02,0.0,1,Lying,4
2019-01-21,17:14:28,-0.45999998,0.07999998,9.219999000000001,-0.06,0.0,0.0,-0.06,0.0,0.0,1,Lying,4
2019-01-21,17:14:28,-0.36999997,0.04000002,9.129999,-0.06,0.0,0.0,-0.06,0.0,0.0,1,Lying,4
2019-01-21,17:14:28,-0.36999997,0.04000002,9.129999,-0.049999997000000004,0.0,0.0,-0.049999997000000004,0.0,0.0,1,Lying,4
2019-01-21,17:14:28,-0.38,-0.03999999,9.4,-0.049999997000000004,0.0,0.0,-0.049999997000000004,0.0,0.0,1,Lying,4
2019-01-21,17:14:28,-0.38,-0.03999999,9.4,-0.049999997000000004,0.0,0.0,-0.049999997000000004,0.0,0.0,1,Lying,4
2019-01-21,17:14:28,-0.39999998,0.01999998,9.28,-0.049999997000000004,0.0,0.0,-0.049999997000000004,0.0,0.0,1,Lying,4
2019-01-21,17:14:28,-0.39999998,0.01999998,9.28,-0.03,0.03,0.0,-0.03,0.03,0.0,1,Lying,4
2019-01-21,17:14:28,-0.54,0.04000002,9.37,-0.03,0.03,0.0,-0.03,0.03,0.0,1,Lying,4
2019-01-21,17:14:28,-0.54,0.04000002,9.37,-0.02,0.08,0.0,-0.02,0.08,0.0,1,Lying,4
2019-01-21,17:14:28,-0.7,0.01999998,9.389999000000001,-0.02,0.08,0.0,-0.02,0.08,0.0,1,Lying,4
2019-01-21,17:14:28,-0.7,0.01999998,9.389999000000001,-0.01,0.089999996,-0.01,-0.01,0.089999996,-0.01,1,Lying,4
2019-01-21,17:14:28,-0.77,0.06999999,9.21,-0.01,0.089999996,-0.01,-0.01,0.089999996,-0.01,1,Lying,4
2019-01-21,17:14:28,-0.77,0.06999999,9.21,0.01,0.089999996,0.0,0.01,0.089999996,0.0,1,Lying,4
2019-01-21,17:14:28,-0.96,-0.030000001000000002,9.12,0.0,0.089999996,0.03,0.0,0.089999996,0.03,1,Lying,4
2019-01-21,17:14:28,-0.96,-0.030000001000000002,9.12,0.0,0.089999996,0.03,0.0,0.089999996,0.03,1,Lying,4
2019-01-21,17:14:28,-0.48,-0.060000002000000004,9.32,0.0,0.089999996,0.03,0.0,0.089999996,0.03,1,Lying,4
2019-01-21,17:14:28,-0.48,-0.060000002000000004,9.32,0.0,-0.04,0.03,0.0,-0.04,0.03,1,Lying,4
2019-01-21,17:14:28,-0.26,0.20999998,9.269999499999999,0.0,-0.04,0.03,0.0,-0.04,0.03,1,Lying,4
2019-01-21,17:14:28,-0.26,0.20999998,9.269999499999999,0.01,-0.01,0.02,0.01,-0.01,0.02,1,Lying,4
2019-01-21,17:14:28,-0.7,0.24000001,9.309999000000001,0.01,-0.01,0.02,0.01,-0.01,0.02,1,Lying,4
2019-01-21,17:14:28,-0.7,0.24000001,9.309999000000001,0.0,0.08,0.0,0.0,0.08,0.0,1,Lying,4
2019-01-21,17:14:28,-0.92,-0.09,9.219999000000001,0.0,0.08,0.0,0.0,0.08,0.0,1,Lying,4
2019-01-21,17:14:28,-0.92,-0.09,9.219999000000001,-0.03,0.049999997000000004,0.0,-0.03,0.049999997000000004,0.0,1,Lying,4
2019-01-21,17:14:28,-0.39999998,-0.049999982000000005,9.259999,-0.03,0.049999997000000004,0.0,-0.03,0.049999997000000004,0.0,1,Lying,4
2019-01-21,17:14:28,-0.39999998,-0.049999982000000005,9.259999,0.0,-0.03,0.04,0.0,-0.03,0.04,1,Lying,4
2019-01-21,17:14:29,-0.47,-0.06999999,9.2,0.0,-0.03,0.04,0.0,-0.03,0.04,1,Lying,4
2019-01-21,17:14:29,-0.47,-0.06999999,9.2,0.0,0.04,0.03,0.0,0.04,0.03,1,Lying,4
2019-01-21,17:14:29,-0.74,-0.09,9.16,0.0,0.04,0.03,0.0,0.04,0.03,1,Lying,4
2019-01-21,17:14:29,-0.74,-0.09,9.16,0.02,0.08,0.01,0.02,0.08,0.01,1,Lying,4
2019-01-21,17:14:29,-0.62,0.120000005,9.24,0.02,0.08,0.01,0.02,0.08,0.01,1,Lying,4
2019-01-21,17:14:29,-0.62,0.120000005,9.24,0.01,0.06,0.04,0.01,0.06,0.04,1,Lying,4
2019-01-21,17:14:29,-0.87,0.050000012,9.259999,0.01,0.06,0.04,0.01,0.06,0.04,1,Lying,4
2019-01-21,17:14:29,-0.87,0.050000012,9.259999,0.0,0.09999999400000001,0.02,0.0,0.09999999400000001,0.02,1,Lying,4
2019-01-21,17:14:29,-0.98,0.0,9.21,0.0,0.09999999400000001,0.02,0.0,0.09999999400000001,0.02,1,Lying,4
2019-01-21,17:14:29,-0.98,0.0,9.21,0.01,0.089999996,0.03,0.01,0.089999996,0.03,1,Lying,4
2019-01-21,17:14:29,-0.82,0.13,9.21,0.01,0.089999996,0.03,0.01,0.089999996,0.03,1,Lying,4
2019-01-21,17:14:29,-0.82,0.13,9.21,0.01,0.02,0.03,0.01,0.02,0.03,1,Lying,4
2019-01-21,17:14:29,-0.84000003,0.120000005,9.269999499999999,0.01,0.02,0.03,0.01,0.02,0.03,1,Lying,4
2019-01-21,17:14:29,-0.84000003,0.120000005,9.269999499999999,0.0,0.04,0.02,0.0,0.04,0.02,1,Lying,4
2019-01-21,17:14:29,-0.94,0.06999999,9.259999,0.0,0.04,0.02,0.0,0.04,0.02,1,Lying,4
2019-01-21,17:14:29,-0.94,0.06999999,9.259999,0.0,0.07,0.01,0.0,0.07,0.01,1,Lying,4
2019-01-21,17:14:29,-0.91,0.13,9.23,0.0,0.07,0.01,0.0,0.07,0.01,1,Lying,4
2019-01-21,17:14:29,-0.91,0.13,9.23,0.01,0.06,0.01,0.01,0.06,0.01,1,Lying,4
2019-01-21,17:14:29,-1.08,-0.030000001000000002,9.2,0.0,0.049999997000000004,0.01,0.0,0.049999997000000004,0.01,1,Lying,4
2019-01-21,17:14:29,-1.08,-0.030000001000000002,9.2,0.0,0.049999997000000004,0.01,0.0,0.049999997000000004,0.01,1,Lying,4
2019-01-21,17:14:29,-0.86,0.030000031,9.16,0.0,0.049999997000000004,0.01,0.0,0.049999997000000004,0.01,1,Lying,4
2019-01-21,17:14:29,-0.86,0.030000031,9.16,0.0,-0.02,0.01,0.0,-0.02,0.01,1,Lying,4
2019-01-21,17:14:29,-0.78000003,0.14999998,9.269999499999999,0.0,-0.02,0.01,0.0,-0.02,0.01,1,Lying,4
2019-01-21,17:14:29,-0.78000003,0.14999998,9.269999499999999,0.0,0.01,0.02,0.0,0.01,0.02,1,Lying,4
2019-01-21,17:14:29,-0.78000003,0.20999998,9.259999,0.0,0.01,0.02,0.0,0.01,0.02,1,Lying,4
2019-01-21,17:14:29,-0.78000003,0.20999998,9.259999,0.01,0.06,0.02,0.01,0.06,0.02,1,Lying,4
2019-01-21,17:14:29,-1.1,0.060000002000000004,9.2,0.01,0.06,0.02,0.01,0.06,0.02,1,Lying,4
2019-01-21,17:14:29,-1.1,0.060000002000000004,9.2,0.0,0.06,0.0,0.0,0.06,0.0,1,Lying,4
2019-01-21,17:14:29,-1.0,0.07999998,9.12,0.0,0.06,0.0,0.0,0.06,0.0,1,Lying,4
2019-01-21,17:14:29,-1.0,0.07999998,9.12,0.01,0.02,0.01,0.01,0.02,0.01,1,Lying,4
2019-01-21,17:14:29,-0.95,0.09000003,9.23,0.01,0.02,0.01,0.01,0.02,0.01,1,Lying,4
2019-01-21,17:14:29,-0.95,0.09000003,9.23,0.0,0.02,0.01,0.0,0.02,0.01,1,Lying,4
2019-01-21,17:14:29,-0.88,0.13999999,9.269999499999999,0.0,0.02,0.01,0.0,0.02,0.01,1,Lying,4
2019-01-21,17:14:29,-0.88,0.13999999,9.269999499999999,0.02,0.04,0.02,0.02,0.04,0.02,1,Lying,4
2019-01-21,17:14:29,-1.13,0.100000024,9.24,0.02,0.04,0.02,0.02,0.04,0.02,1,Lying,4
2019-01-21,17:14:29,-1.13,0.100000024,9.24,0.0,0.06,0.0,0.0,0.06,0.0,1,Lying,4
2019-01-21,17:14:29,-1.07,0.050000012,9.19,0.0,0.06,0.0,0.0,0.06,0.0,1,Lying,4
2019-01-21,17:14:29,-1.07,0.050000012,9.19,0.0,0.02,0.0,0.0,0.02,0.0,1,Lying,4
2019-01-21,17:14:29,-0.99,0.09000003,9.28,0.0,0.02,0.0,0.0,0.02,0.0,1,Lying,4
2019-01-21,17:14:29,-0.99,0.09000003,9.28,0.02,0.04,0.01,0.02,0.04,0.01,1,Lying,4
2019-01-21,17:14:29,-1.14,0.22000003,9.23,0.02,0.04,0.01,0.02,0.04,0.01,1,Lying,4
2019-01-21,17:14:29,-1.14,0.22000003,9.23,0.02,0.09999999400000001,0.01,0.02,0.09999999400000001,0.01,1,Lying,4
2019-01-21,17:14:29,-1.32,0.09000003,9.16,0.02,0.09999999400000001,0.01,0.02,0.09999999400000001,0.01,1,Lying,4
2019-01-21,17:14:30,-1.32,0.09000003,9.16,0.0,0.07,0.0,0.0,0.07,0.0,1,Lying,4
2019-01-21,17:14:30,-1.07,0.120000005,9.15,0.0,0.07,0.0,0.0,0.07,0.0,1,Lying,4
2019-01-21,17:14:30,-1.07,0.120000005,9.15,0.01,0.0,0.01,0.01,0.0,0.01,1,Lying,4
2019-01-21,17:14:30,-1.04,0.120000005,9.059999000000001,0.01,0.0,0.01,0.01,0.0,0.01,1,Lying,4
2019-01-21,17:14:30,-1.04,0.120000005,9.059999000000001,0.01,0.02,0.0,0.01,0.02,0.0,1,Lying,4
2019-01-21,17:14:30,-1.11,0.32,9.219999000000001,0.01,0.02,0.0,0.01,0.02,0.0,1,Lying,4
2019-01-21,17:14:30,-1.11,0.32,9.219999000000001,0.0,0.02,-0.01,0.0,0.02,-0.01,1,Lying,4
2019-01-21,17:14:30,-1.3,0.11000001400000001,9.259999,0.0,0.02,-0.01,0.0,0.02,-0.01,1,Lying,4
2019-01-21,17:14:30,-1.3,0.11000001400000001,9.259999,0.0,0.04,0.0,0.0,0.04,0.0,1,Lying,4
2019-01-21,17:14:30,-1.25,0.23000002,9.16,0.0,0.04,0.0,0.0,0.04,0.0,1,Lying,4
2019-01-21,17:14:30,-1.25,0.23000002,9.16,0.0,0.02,0.0,0.0,0.02,0.0,1,Lying,4
2019-01-21,17:14:30,-1.26,0.17000002,9.21,0.0,0.02,0.0,0.0,0.02,0.0,1,Lying,4
2019-01-21,17:14:30,-1.26,0.17000002,9.21,-0.02,0.0,0.0,-0.02,0.0,0.0,1,Lying,4
2019-01-21,17:14:30,-1.09,0.18,8.9,-0.02,0.0,0.0,-0.02,0.0,0.0,1,Lying,4
2019-01-21,17:14:30,-1.09,0.18,8.9,0.0,-0.01,0.01,0.0,-0.01,0.01,1,Lying,4
2019-01-21,17:14:30,-0.89,0.060000002000000004,9.049999,0.0,-0.01,0.01,0.0,-0.01,0.01,1,Lying,4
2019-01-21,17:14:30,-0.89,0.060000002000000004,9.049999,-0.03,-0.02,0.0,-0.03,-0.02,0.0,1,Lying,4
2019-01-21,17:14:30,-0.92,0.060000002000000004,9.36,-0.04,0.0,-0.03,-0.04,0.0,-0.03,1,Lying,4
2019-01-21,17:14:30,-0.92,0.060000002000000004,9.36,-0.04,0.0,-0.03,-0.04,0.0,-0.03,1,Lying,4
2019-01-21,17:14:30,-1.3,0.030000031,9.4,-0.01,0.09999999400000001,-0.049999997000000004,-0.01,0.09999999400000001,-0.049999997000000004,1,Lying,4
2019-01-21,17:14:30,-1.3,0.030000031,9.4,-0.01,0.09999999400000001,-0.049999997000000004,-0.01,0.09999999400000001,-0.049999997000000004,1,Lying,4
2019-01-21,17:14:30,-1.5699999,0.060000002000000004,9.29,-0.01,0.09999999400000001,-0.049999997000000004,-0.01,0.09999999400000001,-0.049999997000000004,1,Lying,4
2019-01-21,17:14:30,-1.5699999,0.060000002000000004,9.29,0.0,0.13,-0.03,0.0,0.13,-0.03,1,Lying,4
2019-01-21,17:14:30,-1.61,0.120000005,9.15,0.0,0.13,-0.03,0.0,0.13,-0.03,1,Lying,4
2019-01-21,17:14:30,-1.61,0.120000005,9.15,0.0,0.06,-0.02,0.0,0.06,-0.02,1,Lying,4
2019-01-21,17:14:30,-1.48,0.11000001400000001,9.16,0.0,0.06,-0.02,0.0,0.06,-0.02,1,Lying,4
2019-01-21,17:14:30,-1.48,0.11000001400000001,9.16,-0.01,0.0,-0.02,-0.01,0.0,-0.02,1,Lying,4
2019-01-21,17:14:30,-1.36,0.120000005,9.19,-0.01,0.0,-0.02,-0.01,0.0,-0.02,1,Lying,4
2019-01-21,17:14:30,-1.36,0.120000005,9.19,-0.01,-0.02,-0.01,-0.01,-0.02,-0.01,1,Lying,4
2019-01-21,17:14:30,-1.34,0.09000003,9.259999,-0.01,-0.02,-0.01,-0.01,-0.02,-0.01,1,Lying,4
2019-01-21,17:14:30,-1.34,0.09000003,9.259999,0.0,0.0,0.0,0.0,0.0,0.0,1,Lying,4
2019-01-21,17:14:30,-1.29,0.060000002000000004,9.139999000000001,0.0,0.0,0.0,0.0,0.0,0.0,1,Lying,4
2019-01-21,17:14:30,-1.29,0.060000002000000004,9.139999000000001,0.0,0.0,0.0,0.0,0.0,0.0,1,Lying,4
2019-01-21,17:14:30,-1.21,0.030000031,9.19,0.0,0.0,0.0,0.0,0.0,0.0,1,Lying,4
2019-01-21,17:14:30,-1.21,0.030000031,9.19,0.0,-0.01,0.0,0.0,-0.01,0.0,1,Lying,4
2019-01-21,17:14:30,-1.17,0.060000002000000004,9.179999,0.0,-0.01,0.0,0.0,-0.01,0.0,1,Lying,4
2019-01-21,17:14:30,-1.17,0.060000002000000004,9.179999,0.0,0.0,0.0,0.0,0.0,0.0,1,Lying,4
2019-01-21,17:14:30,-1.26,0.07999998,9.12,0.0,0.0,0.0,0.0,0.0,0.0,1,Lying,4
2019-01-21,17:14:30,-1.26,0.07999998,9.12,0.0,0.01,0.0,0.0,0.01,0.0,1,Lying,4
2019-01-21,17:14:30,-1.3,0.13,9.219999000000001,0.0,0.01,0.0,0.0,0.01,0.0,1,Lying,4
2019-01-21,17:14:30,-1.3,0.13,9.219999000000001,0.0,0.03,0.0,0.0,0.03,0.0,1,Lying,4
2019-01-21,17:14:30,-1.39,0.13,9.28,0.0,0.03,0.0,0.0,0.03,0.0,1,Lying,4
2019-01-21,17:14:30,-1.39,0.13,9.28,0.0,0.03,-0.01,0.0,0.03,-0.01,1,Lying,4
2019-01-21,17:14:30,-1.34,0.07999998,9.259999,0.0,0.01,0.0,0.0,0.01,0.0,1,Lying,4
2019-01-21,17:14:30,-1.34,0.07999998,9.259999,0.0,0.01,0.0,0.0,0.01,0.0,1,Lying,4
2019-01-21,17:14:31,-1.21,0.13999999,9.08,0.01,0.0,0.0,0.01,0.0,0.0,1,Lying,4
2019-01-21,17:14:31,-1.21,0.13999999,9.08,0.01,0.0,0.0,0.01,0.0,0.0,1,Lying,4
2019-01-21,17:14:31,-1.23,0.050000012,9.16,0.01,0.0,0.0,0.01,0.0,0.0,1,Lying,4
2019-01-21,17:14:31,-1.23,0.050000012,9.16,-0.01,0.0,0.0,-0.01,0.0,0.0,1,Lying,4
2019-01-21,17:14:31,-1.34,0.04000002,9.259999,-0.01,0.0,0.0,-0.01,0.0,0.0,1,Lying,4
2019-01-21,17:14:31,-1.34,0.04000002,9.259999,0.0,0.01,-0.01,0.0,0.01,-0.01,1,Lying,4
2019-01-21,17:14:31,-1.41,0.100000024,9.12,0.0,0.01,-0.01,0.0,0.01,-0.01,1,Lying,4
2019-01-21,17:14:31,-1.41,0.100000024,9.12,-0.01,-0.01,-0.01,-0.01,-0.01,-0.01,1,Lying,4
2019-01-21,17:14:31,-1.3,0.060000002000000004,9.139999000000001,-0.01,-0.01,-0.01,-0.01,-0.01,-0.01,1,Lying,4
2019-01-21,17:14:31,-1.3,0.060000002000000004,9.139999000000001,-0.01,0.0,0.0,-0.01,0.0,0.0,1,Lying,4
2019-01-21,17:14:31,-1.3,0.060000002000000004,9.21,-0.01,0.0,0.0,-0.01,0.0,0.0,1,Lying,4
2019-01-21,17:14:31,-1.3,0.060000002000000004,9.21,0.0,0.0,-0.01,0.0,0.0,-0.01,1,Lying,4
2019-01-21,17:14:31,-1.4399998999999999,0.120000005,9.25,0.0,0.0,-0.01,0.0,0.0,-0.01,1,Lying,4
2019-01-21,17:14:31,-1.4399998999999999,0.120000005,9.25,-0.03,0.0,-0.03,-0.03,0.0,-0.03,1,Lying,4
2019-01-21,17:14:31,-1.27,0.13,9.12,-0.03,0.0,-0.03,-0.03,0.0,-0.03,1,Lying,4
2019-01-21,17:14:31,-1.27,0.13,9.12,-0.01,-0.02,0.0,-0.01,-0.02,0.0,1,Lying,4
2019-01-21,17:14:31,-1.22,0.00999999,9.15,-0.01,-0.02,0.0,-0.01,-0.02,0.0,1,Lying,4
2019-01-21,17:14:31,-1.22,0.00999999,9.15,-0.01,0.0,-0.02,-0.01,0.0,-0.02,1,Lying,4
2019-01-21,17:14:31,-1.42,0.00999999,9.07,-0.01,0.0,-0.02,-0.01,0.0,-0.02,1,Lying,4
2019-01-21,17:14:31,-1.42,0.00999999,9.07,-0.03,-0.01,-0.04,-0.03,-0.01,-0.04,1,Lying,4
2019-01-21,17:14:31,-1.41,0.07999998,9.15,-0.03,-0.01,-0.04,-0.03,-0.01,-0.04,1,Lying,4
2019-01-21,17:14:31,-1.41,0.07999998,9.15,-0.04,-0.089999996,-0.03,-0.04,-0.089999996,-0.03,1,Lying,4
2019-01-21,17:14:31,-1.17,-0.030000001000000002,9.24,-0.04,-0.089999996,-0.03,-0.04,-0.089999996,-0.03,1,Lying,4
2019-01-21,17:14:31,-1.17,-0.030000001000000002,9.24,-0.049999997000000004,-0.17,-0.04,-0.049999997000000004,-0.17,-0.04,1,Lying,4
2019-01-21,17:14:31,-0.92,-0.109999985,9.25,-0.049999997000000004,-0.17,-0.04,-0.049999997000000004,-0.17,-0.04,1,Lying,4
2019-01-21,17:14:31,-0.92,-0.109999985,9.25,-0.04,-0.13,-0.01,-0.04,-0.13,-0.01,1,Lying,4
2019-01-21,17:14:31,-0.98,-0.00999999,9.25,-0.04,-0.13,-0.01,-0.04,-0.13,-0.01,1,Lying,4
2019-01-21,17:14:31,-0.98,-0.00999999,9.25,0.01,0.06,0.0,0.01,0.06,0.0,1,Lying,4
2019-01-21,17:14:31,-1.3,0.00999999,9.23,0.01,0.06,0.0,0.01,0.06,0.0,1,Lying,4
2019-01-21,17:14:31,-1.3,0.00999999,9.23,0.0,0.08,-0.02,0.0,0.08,-0.02,1,Lying,4
2019-01-21,17:14:31,-1.27,0.050000012,9.179999,0.0,0.04,-0.01,0.0,0.04,-0.01,1,Lying,4
2019-01-21,17:14:31,-1.27,0.050000012,9.179999,0.0,0.04,-0.01,0.0,0.04,-0.01,1,Lying,4
2019-01-21,17:14:31,-1.24,-0.00999999,9.23,0.0,0.04,-0.01,0.0,0.04,-0.01,1,Lying,4
2019-01-21,17:14:31,-1.24,-0.00999999,9.23,0.0,0.01,0.0,0.0,0.01,0.0,1,Lying,4
2019-01-21,17:14:31,-1.23,-0.00999999,9.29,0.0,0.01,0.0,0.0,0.01,0.0,1,Lying,4
2019-01-21,17:14:31,-1.23,-0.00999999,9.29,0.0,0.0,0.0,0.0,0.0,0.0,1,Lying,4
2019-01-21,17:14:31,-1.21,-0.07999998,9.24,0.0,0.0,0.0,0.0,0.0,0.0,1,Lying,4
2019-01-21,17:14:31,-1.21,-0.07999998,9.24,0.0,0.0,0.0,0.0,0.0,0.0,1,Lying,4
2019-01-21,17:14:31,-1.16,-0.03999999,9.219999000000001,0.0,0.0,0.0,0.0,0.0,0.0,1,Lying,4
2019-01-21,17:14:31,-1.16,-0.03999999,9.219999000000001,0.0,0.0,0.0,0.0,0.0,0.0,1,Lying,4
2019-01-21,17:14:31,-1.16,-0.07999998,9.23,0.0,0.0,0.0,0.0,0.0,0.0,1,Lying,4
2019-01-21,17:14:31,-1.16,-0.07999998,9.23,0.0,0.01,0.0,0.0,0.01,0.0,1,Lying,4
2019-01-21,17:14:31,-1.2,0.04000002,9.2,0.0,0.01,0.0,0.0,0.01,0.0,1,Lying,4
2019-01-21,17:14:31,-1.2,0.04000002,9.2,-0.01,0.02,-0.01,-0.01,0.02,-0.01,1,Lying,4
2019-01-21,17:14:31,-1.33,0.04000002,9.25,-0.01,0.02,-0.01,-0.01,0.02,-0.01,1,Lying,4
2019-01-21,17:14:32,-1.33,0.04000002,9.25,0.0,0.03,0.0,0.0,0.03,0.0,1,Lying,4
2019-01-21,17:14:32,-1.27,-0.00999999,9.17,0.0,0.03,0.0,0.0,0.03,0.0,1,Lying,4
2019-01-21,17:14:32,-1.27,-0.00999999,9.17,0.0,0.0,0.0,0.0,0.0,0.0,1,Lying,4
2019-01-21,17:14:32,-1.27,0.06999999,9.179999,0.0,0.0,0.0,0.0,0.0,0.0,1,Lying,4
2019-01-21,17:14:32,-1.27,0.06999999,9.179999,0.0,0.01,0.0,0.0,0.01,0.0,1,Lying,4
2019-01-21,17:14:32,-1.37,-0.030000001000000002,9.139999000000001,0.0,0.01,0.0,0.0,0.01,0.0,1,Lying,4
2019-01-21,17:14:32,-1.37,-0.030000001000000002,9.139999000000001,0.0,0.0,0.0,0.0,0.0,0.0,1,Lying,4
2019-01-21,17:14:32,-1.12,-0.109999985,9.28,0.0,0.0,0.0,0.0,0.0,0.0,1,Lying,4
2019-01-21,17:14:32,-1.12,-0.109999985,9.28,-0.04,-0.13,0.0,-0.04,-0.13,0.0,1,Lying,4
2019-01-21,17:14:32,-0.96,-0.06999999,9.08,-0.04,-0.13,0.0,-0.04,-0.13,0.0,1,Lying,4
2019-01-21,17:14:32,-0.96,-0.06999999,9.08,-0.03,-0.17,-0.01,-0.03,-0.17,-0.01,1,Lying,4
2019-01-21,17:14:32,-0.99,-0.22999999,9.549999,-0.03,-0.17,-0.01,-0.03,-0.17,-0.01,1,Lying,4
2019-01-21,17:14:32,-0.99,-0.22999999,9.549999,0.0,-0.07,0.0,0.0,-0.07,0.0,1,Lying,4
2019-01-21,17:14:32,-1.23,-0.06999999,9.11,0.0,-0.07,0.0,0.0,-0.07,0.0,1,Lying,4
2019-01-21,17:14:32,-1.23,-0.06999999,9.11,0.06,0.03,-0.02,0.06,0.03,-0.02,1,Lying,4
2019-01-21,17:14:32,-1.51,0.17000002,9.349999,0.06,0.03,-0.02,0.06,0.03,-0.02,1,Lying,4
2019-01-21,17:14:32,-1.51,0.17000002,9.349999,0.03,0.01,-0.01,0.03,0.01,-0.01,1,Lying,4
2019-01-21,17:14:32,-1.38,0.04000002,8.98,0.03,0.01,-0.01,0.03,0.01,-0.01,1,Lying,4
2019-01-21,17:14:32,-1.38,0.04000002,8.98,0.049999997000000004,-0.03,0.02,0.049999997000000004,-0.03,0.02,1,Lying,4
2019-01-21,17:14:32,-0.56,-0.060000002000000004,9.2,0.049999997000000004,-0.03,0.02,0.049999997000000004,-0.03,0.02,1,Lying,4
2019-01-21,17:14:32,-0.56,-0.060000002000000004,9.2,0.0,-0.16,0.02,0.0,-0.16,0.02,1,Lying,4
2019-01-21,17:14:32,-0.83,-0.17999998,9.45,0.0,-0.16,0.02,0.0,-0.16,0.02,1,Lying,4
2019-01-21,17:14:32,-0.83,-0.17999998,9.45,0.0,-0.04,0.0,0.0,-0.04,0.0,1,Lying,4
2019-01-21,17:14:32,-0.98,0.16000003,9.21,0.0,-0.04,0.0,0.0,-0.04,0.0,1,Lying,4
2019-01-21,17:14:32,-0.98,0.16000003,9.21,0.04,0.03,0.01,0.04,0.03,0.01,1,Lying,4
2019-01-21,17:14:32,-1.0600001000000001,0.13,9.04,0.04,0.03,0.01,0.04,0.03,0.01,1,Lying,4
2019-01-21,17:14:32,-1.0600001000000001,0.13,9.04,0.0,0.0,0.0,0.0,0.0,0.0,1,Lying,4
2019-01-21,17:14:32,-0.90000004,-0.03999999,9.009999,0.0,0.0,0.0,0.0,0.0,0.0,1,Lying,4
2019-01-21,17:14:32,-0.90000004,-0.03999999,9.009999,-0.01,0.0,-0.01,-0.01,0.0,-0.01,1,Lying,4
2019-01-21,17:14:32,-0.90000004,0.04000002,9.2,-0.01,0.0,-0.01,-0.01,0.0,-0.01,1,Lying,4
2019-01-21,17:14:32,-0.90000004,0.04000002,9.2,-0.01,0.02,-0.02,-0.01,0.02,-0.02,1,Lying,4
2019-01-21,17:14:32,-1.25,0.07999998,9.19,-0.01,0.02,-0.02,-0.01,0.02,-0.02,1,Lying,4
2019-01-21,17:14:32,-1.25,0.07999998,9.19,0.0,0.08,-0.01,0.0,0.08,-0.01,1,Lying,4
2019-01-21,17:14:32,-1.11,0.04000002,9.379999,0.0,0.08,-0.01,0.0,0.08,-0.01,1,Lying,4
2019-01-21,17:14:32,-1.11,0.04000002,9.379999,-0.01,0.01,0.0,-0.01,0.01,0.0,1,Lying,4
2019-01-21,17:14:32,-0.79,-0.00999999,9.23,-0.01,0.01,0.0,-0.01,0.01,0.0,1,Lying,4
2019-01-21,17:14:32,-0.79,-0.00999999,9.23,0.0,-0.049999997000000004,0.0,0.0,-0.049999997000000004,0.0,1,Lying,4
2019-01-21,17:14:32,-1.21,0.100000024,9.089999,0.0,-0.049999997000000004,0.0,0.0,-0.049999997000000004,0.0,1,Lying,4
2019-01-21,17:14:32,-1.21,0.100000024,9.089999,0.0,0.03,-0.01,0.0,0.03,-0.01,1,Lying,4
2019-01-21,17:14:32,-1.27,0.14999998,9.139999000000001,0.0,0.03,-0.01,0.0,0.03,-0.01,1,Lying,4
2019-01-21,17:14:32,-1.27,0.14999998,9.139999000000001,0.0,0.049999997000000004,0.0,0.0,0.049999997000000004,0.0,1,Lying,4
2019-01-21,17:14:32,-0.99,0.17000002,9.17,0.0,0.049999997000000004,0.0,0.0,0.049999997000000004,0.0,1,Lying,4
2019-01-21,17:14:32,-0.99,0.17000002,9.17,0.0,0.0,0.02,0.0,0.0,0.02,1,Lying,4
2019-01-21,17:14:32,-1.03,-0.00999999,9.29,0.0,0.0,0.02,0.0,0.0,0.02,1,Lying,4
2019-01-21,17:14:32,-1.03,-0.00999999,9.29,-0.02,0.0,0.0,-0.02,0.0,0.0,1,Lying,4
2019-01-21,17:14:32,-1.13,-0.19,9.54,-0.02,0.0,0.0,-0.02,0.0,0.0,1,Lying,4
2019-01-21,17:14:33,-1.13,-0.19,9.54,-0.02,0.03,0.0,-0.02,0.03,0.0,1,Lying,4
2019-01-21,17:14:33,-0.81,-0.06999999,9.04,-0.02,0.03,0.0,-0.02,0.03,0.0,1,Lying,4
2019-01-21,17:14:33,-0.81,-0.06999999,9.04,0.02,0.0,0.0,0.02,0.0,0.0,1,Lying,4
2019-01-21,17:14:33,-1.0,0.060000002000000004,9.28,0.02,0.0,0.0,0.02,0.0,0.0,1,Lying,4
2019-01-21,17:14:33,-1.0,0.060000002000000004,9.28,-0.01,0.04,-0.01,-0.01,0.04,-0.01,1,Lying,4
2019-01-21,17:14:33,-1.34,0.04000002,9.24,-0.01,0.04,-0.01,-0.01,0.04,-0.01,1,Lying,4
2019-01-21,17:14:33,-1.34,0.04000002,9.24,0.01,0.09999999400000001,-0.01,0.01,0.09999999400000001,-0.01,1,Lying,4
2019-01-21,17:14:33,-1.26,0.050000012,9.259999,0.01,0.09999999400000001,-0.01,0.01,0.09999999400000001,-0.01,1,Lying,4
2019-01-21,17:14:33,-1.26,0.050000012,9.259999,0.0,0.01,0.01,0.0,0.01,0.01,1,Lying,4
2019-01-21,17:14:33,-1.27,-0.060000002000000004,9.2,0.0,0.01,0.01,0.0,0.01,0.01,1,Lying,4
2019-01-21,17:14:33,-1.27,-0.060000002000000004,9.2,0.0,0.0,0.0,0.0,0.0,0.0,1,Lying,4
2019-01-21,17:14:33,-1.0600001000000001,-0.00999999,9.28,0.0,0.0,0.0,0.0,0.0,0.0,1,Lying,4
2019-01-21,17:14:33,-1.0600001000000001,-0.00999999,9.28,0.0,-0.01,0.01,0.0,-0.01,0.01,1,Lying,4
2019-01-21,17:14:33,-1.11,-0.030000001000000002,9.33,0.0,-0.01,0.01,0.0,-0.01,0.01,1,Lying,4
2019-01-21,17:14:33,-1.11,-0.030000001000000002,9.33,0.0,0.0,0.0,0.0,0.0,0.0,1,Lying,4
2019-01-21,17:14:33,-1.25,0.16000003,9.2,0.01,0.02,0.0,0.01,0.02,0.0,1,Lying,4
2019-01-21,17:14:33,-1.25,0.16000003,9.2,0.01,0.02,0.0,0.01,0.02,0.0,1,Lying,4
2019-01-21,17:14:33,-1.32,-0.07999998,9.339999,0.01,0.02,0.0,0.01,0.02,0.0,1,Lying,4
2019-01-21,17:14:33,-1.32,-0.07999998,9.339999,0.03,0.049999997000000004,0.03,0.03,0.049999997000000004,0.03,1,Lying,4
2019-01-21,17:14:33,-1.35,0.04000002,9.24,0.03,0.049999997000000004,0.03,0.03,0.049999997000000004,0.03,1,Lying,4
2019-01-21,17:14:33,-1.35,0.04000002,9.24,0.04,0.07,0.06,0.04,0.07,0.06,1,Lying,4
2019-01-21,17:14:33,-1.03,0.14999998,9.059999000000001,0.04,0.07,0.06,0.04,0.07,0.06,1,Lying,4
2019-01-21,17:14:33,-1.03,0.14999998,9.059999000000001,0.02,0.0,0.049999997000000004,0.02,0.0,0.049999997000000004,1,Lying,4
2019-01-21,17:14:33,-1.16,0.09000003,9.219999000000001,0.02,0.0,0.049999997000000004,0.02,0.0,0.049999997000000004,1,Lying,4
2019-01-21,17:14:33,-1.16,0.09000003,9.219999000000001,0.01,0.01,0.02,0.01,0.01,0.02,1,Lying,4
2019-01-21,17:14:33,-1.11,0.13999999,9.049999,0.01,0.01,0.02,0.01,0.01,0.02,1,Lying,4
2019-01-21,17:14:33,-1.11,0.13999999,9.049999,0.02,0.03,0.02,0.02,0.03,0.02,1,Lying,4
2019-01-21,17:14:33,-0.97,0.11000001400000001,9.339999,0.02,0.03,0.02,0.02,0.03,0.02,1,Lying,4
2019-01-21,17:14:33,-0.97,0.11000001400000001,9.339999,0.0,-0.01,0.01,0.0,-0.01,0.01,1,Lying,4
2019-01-21,17:14:33,-1.07,0.00999999,9.299999,0.0,-0.01,0.01,0.0,-0.01,0.01,1,Lying,4
2019-01-21,17:14:33,-1.07,0.00999999,9.299999,0.01,0.0,-0.02,0.01,0.0,-0.02,1,Lying,4
2019-01-21,17:14:33,-1.53,0.23000002,9.299999,0.03,0.04,-0.02,0.03,0.04,-0.02,1,Lying,4
2019-01-21,17:14:33,-1.53,0.23000002,9.299999,0.03,0.04,-0.02,0.03,0.04,-0.02,1,Lying,4
2019-01-21,17:14:33,-1.3,0.17000002,8.929999,0.03,0.04,-0.02,0.03,0.04,-0.02,1,Lying,4
2019-01-21,17:14:33,-1.3,0.17000002,8.929999,0.04,-0.08,0.0,0.04,-0.08,0.0,1,Lying,4
2019-01-21,17:14:33,-0.82,0.030000031,9.16,0.04,-0.08,0.0,0.04,-0.08,0.0,1,Lying,4
2019-01-21,17:14:33,-0.82,0.030000031,9.16,0.02,-0.14,-0.01,0.02,-0.14,-0.01,1,Lying,4
2019-01-21,17:14:33,-0.97,0.14999998,9.19,0.02,-0.14,-0.01,0.02,-0.14,-0.01,1,Lying,4
2019-01-21,17:14:33,-0.97,0.14999998,9.19,0.03,-0.09999999400000001,-0.06,0.03,-0.09999999400000001,-0.06,1,Lying,4
2019-01-21,17:14:33,-1.07,-0.00999999,9.36,0.03,-0.09999999400000001,-0.06,0.03,-0.09999999400000001,-0.06,1,Lying,4
2019-01-21,17:14:33,-1.07,-0.00999999,9.36,0.04,-0.08,-0.06,0.04,-0.08,-0.06,1,Lying,4
2019-01-21,17:14:33,-0.76,0.27999997,9.16,0.04,-0.08,-0.06,0.04,-0.08,-0.06,1,Lying,4
2019-01-21,17:14:33,-0.76,0.27999997,9.16,0.06,-0.12,-0.06,0.06,-0.12,-0.06,1,Lying,4
2019-01-21,17:14:33,-1.0,0.29000002,9.41,0.03,-0.07,-0.06,0.03,-0.07,-0.06,1,Lying,4
2019-01-21,17:14:34,-1.0,0.29000002,9.41,0.03,-0.07,-0.06,0.03,-0.07,-0.06,1,Lying,4
2019-01-21,17:14:34,-1.24,0.43,8.849999,0.03,-0.07,-0.06,0.03,-0.07,-0.06,1,Lying,4
2019-01-21,17:14:34,-1.24,0.43,8.849999,0.049999997000000004,0.07,-0.06,0.049999997000000004,0.07,-0.06,1,Lying,4
2019-01-21,17:14:34,-1.49,0.35000002,9.219999000000001,0.049999997000000004,0.07,-0.06,0.049999997000000004,0.07,-0.06,1,Lying,4
2019-01-21,17:14:34,-1.49,0.35000002,9.219999000000001,0.0,0.08,0.01,0.0,0.08,0.01,1,Lying,4
2019-01-21,17:14:34,-1.18,0.33999997,9.29,0.0,0.08,0.01,0.0,0.08,0.01,1,Lying,4
2019-01-21,17:14:34,-1.18,0.33999997,9.29,0.0,0.049999997000000004,0.04,0.0,0.049999997000000004,0.04,1,Lying,4
2019-01-21,17:14:34,-1.21,0.26999998,9.12,0.0,0.049999997000000004,0.04,0.0,0.049999997000000004,0.04,1,Lying,4
2019-01-21,17:14:34,-1.21,0.26999998,9.12,-0.01,0.06,0.049999997000000004,-0.01,0.06,0.049999997000000004,1,Lying,4
2019-01-21,17:14:34,-1.1,0.100000024,9.219999000000001,-0.01,0.06,0.049999997000000004,-0.01,0.06,0.049999997000000004,1,Lying,4
2019-01-21,17:14:34,-1.1,0.100000024,9.219999000000001,-0.03,0.0,0.049999997000000004,-0.03,0.0,0.049999997000000004,1,Lying,4
2019-01-21,17:14:34,-0.59000003,0.09000003,9.16,-0.03,0.0,0.049999997000000004,-0.03,0.0,0.049999997000000004,1,Lying,4
2019-01-21,17:14:34,-0.59000003,0.09000003,9.16,0.0,-0.089999996,0.03,0.0,-0.089999996,0.03,1,Lying,4
2019-01-21,17:14:34,-1.07,0.3,9.21,0.0,0.0,-0.01,0.0,0.0,-0.01,1,Lying,4
2019-01-21,17:14:34,-1.07,0.3,9.21,0.0,0.0,-0.01,0.0,0.0,-0.01,1,Lying,4
2019-01-21,17:14:34,-1.28,0.37,9.15,0.0,0.0,-0.01,0.0,0.0,-0.01,1,Lying,4
2019-01-21,17:14:34,-1.28,0.37,9.15,0.01,0.19999999,0.0,0.01,0.19999999,0.0,1,Lying,4
2019-01-21,17:14:34,-1.48,0.35000002,9.089999,0.01,0.19999999,0.0,0.01,0.19999999,0.0,1,Lying,4
2019-01-21,17:14:34,-1.48,0.35000002,9.089999,0.01,0.25,0.01,0.01,0.25,0.01,1,Lying,4
2019-01-21,17:14:34,-1.74,0.38,9.07,0.01,0.25,0.01,0.01,0.25,0.01,1,Lying,4
2019-01-21,17:14:34,-1.74,0.38,9.07,0.01,0.24,0.03,0.01,0.24,0.03,1,Lying,4
2019-01-21,17:14:34,-1.45,0.32,9.08,0.01,0.24,0.03,0.01,0.24,0.03,1,Lying,4
2019-01-21,17:14:34,-1.45,0.32,9.08,0.0,0.089999996,0.06,0.0,0.089999996,0.06,1,Lying,4
2019-01-21,17:14:34,-1.23,0.29000002,9.28,0.0,0.089999996,0.06,0.0,0.089999996,0.06,1,Lying,4
2019-01-21,17:14:34,-1.23,0.29000002,9.28,-0.01,0.0,0.03,-0.01,0.0,0.03,1,Lying,4
2019-01-21,17:14:34,-1.27,0.29000002,9.219999000000001,-0.01,0.0,0.03,-0.01,0.0,0.03,1,Lying,4
2019-01-21,17:14:34,-1.27,0.29000002,9.219999000000001,-0.02,0.049999997000000004,0.03,-0.02,0.049999997000000004,0.03,1,Lying,4
2019-01-21,17:14:34,-1.31,0.13999999,9.16,-0.02,0.049999997000000004,0.03,-0.02,0.049999997000000004,0.03,1,Lying,4
2019-01-21,17:14:34,-1.31,0.13999999,9.16,-0.02,0.08,0.03,-0.02,0.08,0.03,1,Lying,4
2019-01-21,17:14:34,-1.37,0.25,9.03,-0.01,0.06,0.02,-0.01,0.06,0.02,1,Lying,4
2019-01-21,17:14:34,-1.37,0.25,9.03,-0.01,0.06,0.02,-0.01,0.06,0.02,1,Lying,4
2019-01-21,17:14:34,-1.43,0.26999998,9.299999,-0.01,0.06,0.02,-0.01,0.06,0.02,1,Lying,4
2019-01-21,17:14:34,-1.43,0.26999998,9.299999,-0.01,0.06,0.01,-0.01,0.06,0.01,1,Lying,4
2019-01-21,17:14:34,-1.6,0.38,9.12,-0.01,0.06,0.01,-0.01,0.06,0.01,1,Lying,4
2019-01-21,17:14:34,-1.6,0.38,9.12,0.0,0.08,0.01,0.0,0.08,0.01,1,Lying,4
2019-01-21,17:14:34,-1.51,0.11000001400000001,9.049999,-0.04,0.06,0.03,-0.04,0.06,0.03,1,Lying,4
2019-01-21,17:14:34,-1.51,0.11000001400000001,9.049999,-0.04,0.06,0.03,-0.04,0.06,0.03,1,Lying,4
2019-01-21,17:14:34,-1.27,0.18,9.21,-0.04,0.06,0.03,-0.04,0.06,0.03,1,Lying,4
2019-01-21,17:14:34,-1.27,0.18,9.21,-0.01,-0.03,0.01,-0.01,-0.03,0.01,1,Lying,4
2019-01-21,17:14:34,-1.45,0.23000002,9.2,-0.01,-0.03,0.01,-0.01,-0.03,0.01,1,Lying,4
2019-01-21,17:14:34,-1.45,0.23000002,9.2,0.02,0.049999997000000004,0.0,0.02,0.049999997000000004,0.0,1,Lying,4
2019-01-21,17:14:34,-1.52,0.26999998,9.129999,0.02,0.049999997000000004,0.0,0.02,0.049999997000000004,0.0,1,Lying,4
2019-01-21,17:14:34,-1.52,0.26999998,9.129999,0.0,0.02,0.0,0.0,0.02,0.0,1,Lying,4
2019-01-21,17:14:34,-1.28,0.23000002,8.99,0.0,0.02,0.0,0.0,0.02,0.0,1,Lying,4
2019-01-21,17:14:34,-1.28,0.23000002,8.99,-0.01,-0.03,-0.01,-0.01,-0.03,-0.01,1,Lying,4
2019-01-21,17:14:35,-1.67,0.24000001,9.28,-0.01,-0.03,-0.01,-0.01,-0.03,-0.01,1,Lying,4
2019-01-21,17:14:35,-1.67,0.24000001,9.28,0.0,0.049999997000000004,-0.02,0.0,0.049999997000000004,-0.02,1,Lying,4
2019-01-21,17:14:35,-1.79,0.35000002,9.139999000000001,0.0,0.049999997000000004,-0.02,0.0,0.049999997000000004,-0.02,1,Lying,4
2019-01-21,17:14:35,-1.79,0.35000002,9.139999000000001,0.02,0.04,0.0,0.02,0.04,0.0,1,Lying,4
2019-01-21,17:14:35,-1.59,0.29000002,9.099999,0.02,0.04,0.0,0.02,0.04,0.0,1,Lying,4
2019-01-21,17:14:35,-1.59,0.29000002,9.099999,0.0,-0.01,0.0,0.0,-0.01,0.0,1,Lying,4
2019-01-21,17:14:35,-1.39,0.17000002,9.12,-0.02,-0.04,0.0,-0.02,-0.04,0.0,1,Lying,4
2019-01-21,17:14:35,-1.39,0.17000002,9.12,-0.02,-0.04,0.0,-0.02,-0.04,0.0,1,Lying,4
2019-01-21,17:14:35,-1.5,0.20999998,9.17,-0.02,-0.04,0.0,-0.02,-0.04,0.0,1,Lying,4
2019-01-21,17:14:35,-1.5,0.20999998,9.17,0.0,0.03,0.0,0.0,0.03,0.0,1,Lying,4
2019-01-21,17:14:35,-1.54,0.23000002,9.15,0.0,0.03,0.0,0.0,0.03,0.0,1,Lying,4
2019-01-21,17:14:35,-1.54,0.23000002,9.15,0.01,0.04,0.0,0.01,0.04,0.0,1,Lying,4
2019-01-21,17:14:35,-1.51,0.23000002,9.15,0.01,0.04,0.0,0.01,0.04,0.0,1,Lying,4
2019-01-21,17:14:35,-1.51,0.23000002,9.15,0.0,0.0,0.0,0.0,0.0,0.0,1,Lying,4
2019-01-21,17:14:35,-1.49,0.27999997,9.15,0.0,0.0,0.0,0.0,0.0,0.0,1,Lying,4
2019-01-21,17:14:35,-1.49,0.27999997,9.15,-0.01,0.0,0.0,-0.01,0.0,0.0,1,Lying,4
2019-01-21,17:14:35,-1.6899998999999999,0.18,9.12,-0.01,0.0,0.0,-0.01,0.0,0.0,1,Lying,4
2019-01-21,17:14:35,-1.6899998999999999,0.18,9.12,-0.02,0.02,0.0,-0.02,0.02,0.0,1,Lying,4
2019-01-21,17:14:35,-1.52,0.20999998,9.129999,-0.02,0.02,0.0,-0.02,0.02,0.0,1,Lying,4
2019-01-21,17:14:35,-1.52,0.20999998,9.129999,-0.02,-0.01,0.0,-0.02,-0.01,0.0,1,Lying,4
2019-01-21,17:14:35,-1.4399998999999999,0.14999998,9.17,-0.02,-0.01,0.0,-0.02,-0.01,0.0,1,Lying,4
2019-01-21,17:14:35,-1.4399998999999999,0.14999998,9.17,-0.02,0.01,-0.01,-0.02,0.01,-0.01,1,Lying,4
2019-01-21,17:14:35,-1.71,0.14999998,9.129999,-0.02,0.01,-0.01,-0.02,0.01,-0.01,1,Lying,4
2019-01-21,17:14:35,-1.71,0.14999998,9.129999,0.0,0.049999997000000004,-0.01,0.0,0.049999997000000004,-0.01,1,Lying,4
2019-01-21,17:14:35,-1.7,0.16000003,9.16,0.0,0.049999997000000004,-0.01,0.0,0.049999997000000004,-0.01,1,Lying,4
2019-01-21,17:14:35,-1.7,0.16000003,9.16,0.0,0.01,0.0,0.0,0.01,0.0,1,Lying,4
2019-01-21,17:14:35,-1.51,0.19,9.08,0.0,0.01,0.0,0.0,0.01,0.0,1,Lying,4
2019-01-21,17:14:35,-1.51,0.19,9.08,-0.01,-0.02,0.0,-0.01,-0.02,0.0,1,Lying,4
2019-01-21,17:14:35,-1.49,0.19999999,9.19,-0.01,-0.02,0.0,-0.01,-0.02,0.0,1,Lying,4
2019-01-21,17:14:35,-1.49,0.19999999,9.19,-0.01,-0.01,0.01,-0.01,-0.01,0.01,1,Lying,4
2019-01-21,17:14:35,-1.66,0.13,9.179999,0.0,0.02,0.0,0.0,0.02,0.0,1,Lying,4
2019-01-21,17:14:35,-1.66,0.13,9.179999,0.0,0.02,0.0,0.0,0.02,0.0,1,Lying,4
2019-01-21,17:14:35,-1.59,0.31,9.07,0.0,0.02,0.0,0.0,0.02,0.0,1,Lying,4
2019-01-21,17:14:35,-1.59,0.31,9.07,0.0,0.0,0.0,0.0,0.0,0.0,1,Lying,4
2019-01-21,17:14:35,-1.61,0.19,9.049999,0.0,0.0,0.0,0.0,0.0,0.0,1,Lying,4
2019-01-21,17:14:35,-1.61,0.19,9.049999,-0.04,-0.03,0.0,-0.04,-0.03,0.0,1,Lying,4
2019-01-21,17:14:35,-1.47,0.030000031,9.24,-0.04,-0.03,0.0,-0.04,-0.03,0.0,1,Lying,4
2019-01-21,17:14:35,-1.47,0.030000031,9.24,-0.07,-0.089999996,-0.01,-0.07,-0.089999996,-0.01,1,Lying,4
2019-01-21,17:14:35,-1.31,0.00999999,9.2,-0.049999997000000004,-0.08,0.0,-0.049999997000000004,-0.08,0.0,1,Lying,4
2019-01-21,17:14:35,-1.31,0.00999999,9.2,-0.049999997000000004,-0.08,0.0,-0.049999997000000004,-0.08,0.0,1,Lying,4
2019-01-21,17:14:35,-1.4399998999999999,0.09000003,9.139999000000001,-0.049999997000000004,-0.08,0.0,-0.049999997000000004,-0.08,0.0,1,Lying,4
2019-01-21,17:14:35,-1.4399998999999999,0.09000003,9.139999000000001,0.0,0.02,0.0,0.0,0.02,0.0,1,Lying,4
2019-01-21,17:14:35,-1.59,0.060000002000000004,9.19,0.0,0.02,0.0,0.0,0.02,0.0,1,Lying,4
2019-01-21,17:14:35,-1.59,0.060000002000000004,9.19,0.0,0.01,0.0,0.0,0.01,0.0,1,Lying,4
2019-01-21,17:14:35,-1.46,0.09000003,9.21,0.0,0.01,0.0,0.0,0.01,0.0,1,Lying,4
2019-01-21,17:14:35,-1.46,0.09000003,9.21,0.0,0.0,0.0,0.0,0.0,0.0,1,Lying,4
2019-01-21,17:14:36,-1.53,0.07999998,9.139999000000001,0.0,0.0,0.0,0.0,0.0,0.0,1,Lying,4
2019-01-21,17:14:36,-1.53,0.07999998,9.139999000000001,0.0,0.01,0.0,0.0,0.01,0.0,1,Lying,4
2019-01-21,17:14:36,-1.4399998999999999,0.14999998,9.16,0.0,0.01,0.0,0.0,0.01,0.0,1,Lying,4
2019-01-21,17:14:36,-1.4399998999999999,0.14999998,9.16,0.0,0.01,0.0,0.0,0.01,0.0,1,Lying,4
2019-01-21,17:14:36,-1.46,0.050000012,9.17,0.0,0.01,0.0,0.0,0.01,0.0,1,Lying,4
2019-01-21,17:14:36,-1.46,0.050000012,9.17,0.0,0.02,0.0,0.0,0.02,0.0,1,Lying,4
2019-01-21,17:14:36,-1.53,0.060000002000000004,9.16,0.0,0.02,0.0,0.0,0.02,0.0,1,Lying,4
2019-01-21,17:14:36,-1.53,0.060000002000000004,9.16,0.0,0.01,0.0,0.0,0.01,0.0,1,Lying,4
2019-01-21,17:14:36,-1.52,0.11000001400000001,9.17,0.0,0.01,0.0,0.0,0.01,0.0,1,Lying,4
2019-01-21,17:14:36,-1.52,0.11000001400000001,9.17,0.0,0.0,0.0,0.0,0.0,0.0,1,Lying,4
2019-01-21,17:14:36,-1.49,0.060000002000000004,9.179999,0.0,0.0,0.0,0.0,0.0,0.0,1,Lying,4
2019-01-21,17:14:36,-1.49,0.060000002000000004,9.179999,0.0,0.0,0.0,0.0,0.0,0.0,1,Lying,4
2019-01-21,17:14:36,-1.49,0.04000002,9.12,0.0,0.0,0.0,0.0,0.0,0.0,1,Lying,4
2019-01-21,17:14:36,-1.49,0.04000002,9.12,0.01,0.0,0.0,0.01,0.0,0.0,1,Lying,4
2019-01-21,17:14:36,-1.64,0.19,9.15,0.01,0.0,0.0,0.01,0.0,0.0,1,Lying,4
2019-01-21,17:14:36,-1.64,0.19,9.15,0.01,0.04,0.0,0.01,0.04,0.0,1,Lying,4
2019-01-21,17:14:36,-1.59,0.16000003,9.11,0.01,0.04,0.0,0.01,0.04,0.0,1,Lying,4
2019-01-21,17:14:36,-1.59,0.16000003,9.11,0.0,0.0,0.0,0.0,0.0,0.0,1,Lying,4
2019-01-21,17:14:36,-1.43,0.07999998,9.15,0.0,0.0,0.0,0.0,0.0,0.0,1,Lying,4
2019-01-21,17:14:36,-1.43,0.07999998,9.15,0.0,-0.01,0.0,0.0,-0.01,0.0,1,Lying,4
2019-01-21,17:14:36,-1.51,0.120000005,9.129999,0.0,-0.01,0.0,0.0,-0.01,0.0,1,Lying,4
2019-01-21,17:14:36,-1.51,0.120000005,9.129999,0.0,0.01,0.0,0.0,0.01,0.0,1,Lying,4
2019-01-21,17:14:36,-1.5,0.11000001400000001,9.12,0.0,0.01,0.0,0.0,0.01,0.0,1,Lying,4
2019-01-21,17:14:36,-1.5,0.11000001400000001,9.12,0.0,0.01,0.0,0.0,0.01,0.0,1,Lying,4
2019-01-21,17:14:36,-1.5,0.16000003,9.21,0.0,0.01,0.0,0.0,0.01,0.0,1,Lying,4
2019-01-21,17:14:36,-1.5,0.16000003,9.21,0.0,0.01,0.0,0.0,0.01,0.0,1,Lying,4
2019-01-21,17:14:36,-1.58,0.13,9.16,0.0,0.01,0.0,0.0,0.01,0.0,1,Lying,4
2019-01-21,17:14:36,-1.58,0.13,9.16,0.0,0.01,0.0,0.0,0.01,0.0,1,Lying,4
2019-01-21,17:14:36,-1.5699999,0.11000001400000001,9.129999,0.0,0.01,0.0,0.0,0.01,0.0,1,Lying,4
2019-01-21,17:14:36,-1.5699999,0.11000001400000001,9.129999,0.0,0.0,0.0,0.0,0.0,0.0,1,Lying,4
2019-01-21,17:14:36,-1.58,0.11000001400000001,9.15,0.0,0.0,0.0,0.0,0.0,0.0,1,Lying,4
2019-01-21,17:14:36,-1.58,0.11000001400000001,9.15,0.0,0.0,0.0,0.0,0.0,0.0,1,Lying,4
2019-01-21,17:14:36,-1.56,0.100000024,9.129999,0.0,0.0,0.0,0.0,0.0,0.0,1,Lying,4
2019-01-21,17:14:36,-1.56,0.100000024,9.129999,0.0,0.0,0.0,0.0,0.0,0.0,1,Lying,4
2019-01-21,17:14:36,-1.55,0.14999998,9.139999000000001,0.0,0.0,0.0,0.0,0.0,0.0,1,Lying,4
2019-01-21,17:14:36,-1.55,0.14999998,9.139999000000001,0.0,0.0,0.0,0.0,0.0,0.0,1,Lying,4
2019-01-21,17:14:36,-1.54,0.060000002000000004,9.2,0.0,0.0,0.0,0.0,0.0,0.0,1,Lying,4
2019-01-21,17:14:36,-1.54,0.060000002000000004,9.2,-0.01,-0.01,0.0,-0.01,-0.01,0.0,1,Lying,4
2019-01-21,17:14:36,-1.52,0.11000001400000001,9.139999000000001,-0.01,-0.01,0.0,-0.01,-0.01,0.0,1,Lying,4
2019-01-21,17:14:36,-1.52,0.11000001400000001,9.139999000000001,-0.01,-0.01,0.0,-0.01,-0.01,0.0,1,Lying,4
2019-01-21,17:14:36,-1.49,0.13999999,9.129999,-0.01,-0.01,0.0,-0.01,-0.01,0.0,1,Lying,4
2019-01-21,17:14:36,-1.49,0.13999999,9.129999,-0.01,-0.01,0.0,-0.01,-0.01,0.0,1,Lying,4
2019-01-21,17:14:36,-1.6,0.22000003,9.15,-0.01,-0.01,0.0,-0.01,-0.01,0.0,1,Lying,4
2019-01-21,17:14:36,-1.6,0.22000003,9.15,-0.02,-0.01,0.0,-0.02,-0.01,0.0,1,Lying,4
2019-01-21,17:14:36,-1.51,0.06999999,9.16,-0.02,-0.01,0.0,-0.02,-0.01,0.0,1,Lying,4
2019-01-21,17:14:37,-1.51,0.06999999,9.16,-0.06,-0.08,-0.01,-0.06,-0.08,-0.01,1,Lying,4
2019-01-21,17:14:37,-1.54,0.04000002,9.21,-0.06,-0.08,-0.01,-0.06,-0.08,-0.01,1,Lying,4
2019-01-21,17:14:37,-1.54,0.04000002,9.21,-0.07,-0.09999999400000001,-0.02,-0.07,-0.09999999400000001,-0.02,1,Lying,4
2019-01-21,17:14:37,-1.49,0.01999998,9.179999,-0.07,-0.09999999400000001,-0.02,-0.07,-0.09999999400000001,-0.02,1,Lying,4
2019-01-21,17:14:37,-1.49,0.01999998,9.179999,-0.049999997000000004,-0.11,-0.01,-0.049999997000000004,-0.11,-0.01,1,Lying,4
2019-01-21,17:14:37,-1.35,-0.060000002000000004,9.16,-0.049999997000000004,-0.11,-0.01,-0.049999997000000004,-0.11,-0.01,1,Lying,4
2019-01-21,17:14:37,-1.35,-0.060000002000000004,9.16,-0.049999997000000004,-0.11,0.0,-0.049999997000000004,-0.11,0.0,1,Lying,4
2019-01-21,17:14:37,-1.28,-0.07999998,9.21,-0.049999997000000004,-0.11,0.0,-0.049999997000000004,-0.11,0.0,1,Lying,4
2019-01-21,17:14:37,-1.28,-0.07999998,9.21,-0.04,-0.089999996,0.0,-0.04,-0.089999996,0.0,1,Lying,4
2019-01-21,17:14:37,-1.18,-0.030000001000000002,9.219999000000001,-0.04,-0.089999996,0.0,-0.04,-0.089999996,0.0,1,Lying,4
2019-01-21,17:14:37,-1.18,-0.030000001000000002,9.219999000000001,-0.01,-0.04,0.0,-0.01,-0.04,0.0,1,Lying,4
2019-01-21,17:14:37,-1.28,-0.01999998,9.139999000000001,-0.01,-0.04,0.0,-0.01,-0.04,0.0,1,Lying,4
2019-01-21,17:14:37,-1.28,-0.01999998,9.139999000000001,0.0,0.02,0.0,0.0,0.02,0.0,1,Lying,4
2019-01-21,17:14:37,-1.51,-0.030000001000000002,9.139999000000001,0.0,0.02,0.0,0.0,0.02,0.0,1,Lying,4
2019-01-21,17:14:37,-1.51,-0.030000001000000002,9.139999000000001,0.0,0.02,0.0,0.0,0.02,0.0,1,Lying,4
2019-01-21,17:14:37,-1.25,0.04000002,9.219999000000001,0.0,0.02,0.0,0.0,0.02,0.0,1,Lying,4
2019-01-21,17:14:37,-1.25,0.04000002,9.219999000000001,0.0,0.0,0.0,0.0,0.0,0.0,1,Lying,4
2019-01-21,17:14:37,-1.34,-0.049999982000000005,9.219999000000001,0.0,0.0,0.0,0.0,0.0,0.0,1,Lying,4
2019-01-21,17:14:37,-1.34,-0.049999982000000005,9.219999000000001,0.0,0.01,0.0,0.0,0.01,0.0,1,Lying,4
2019-01-21,17:14:37,-1.34,-0.03999999,9.2,0.0,0.01,0.0,0.0,0.01,0.0,1,Lying,4
2019-01-21,17:14:37,-1.34,-0.03999999,9.2,0.0,0.02,0.0,0.0,0.02,0.0,1,Lying,4
2019-01-21,17:14:37,-1.37,-0.030000001000000002,9.19,0.0,0.02,0.0,0.0,0.02,0.0,1,Lying,4
2019-01-21,17:14:37,-1.37,-0.030000001000000002,9.19,0.0,0.0,0.0,0.0,0.0,0.0,1,Lying,4
2019-01-21,17:14:37,-1.28,-0.06999999,9.179999,0.0,0.0,0.0,0.0,0.0,0.0,1,Lying,4
2019-01-21,17:14:37,-1.28,-0.06999999,9.179999,0.0,0.0,0.0,0.0,0.0,0.0,1,Lying,4
2019-01-21,17:14:37,-1.33,-0.00999999,9.139999000000001,0.0,0.0,0.0,0.0,0.0,0.0,1,Lying,4
2019-01-21,17:14:37,-1.33,-0.00999999,9.139999000000001,0.0,0.0,-0.01,0.0,0.0,-0.01,1,Lying,4
2019-01-21,17:14:37,-1.32,0.060000002000000004,9.19,0.0,0.0,-0.01,0.0,0.0,-0.01,1,Lying,4
2019-01-21,17:14:37,-1.32,0.060000002000000004,9.19,-0.01,-0.02,-0.02,-0.01,-0.02,-0.02,1,Lying,4
2019-01-21,17:14:37,-1.37,-0.030000001000000002,9.2,-0.01,-0.02,-0.02,-0.01,-0.02,-0.02,1,Lying,4
2019-01-21,17:14:37,-1.37,-0.030000001000000002,9.2,-0.01,-0.01,-0.02,-0.01,-0.01,-0.02,1,Lying,4
2019-01-21,17:14:37,-1.18,0.060000002000000004,9.259999,-0.01,-0.01,-0.02,-0.01,-0.01,-0.02,1,Lying,4
2019-01-21,17:14:37,-1.18,0.060000002000000004,9.259999,0.0,0.0,0.01,0.0,0.0,0.01,1,Lying,4
2019-01-21,17:14:37,-1.4399998999999999,-0.00999999,9.28,0.0,0.049999997000000004,-0.01,0.0,0.049999997000000004,-0.01,1,Lying,4
2019-01-21,17:14:37,-1.4399998999999999,-0.00999999,9.28,0.0,0.049999997000000004,-0.01,0.0,0.049999997000000004,-0.01,1,Lying,4
2019-01-21,17:14:37,-1.4,-0.00999999,9.16,0.0,0.049999997000000004,-0.01,0.0,0.049999997000000004,-0.01,1,Lying,4
2019-01-21,17:14:37,-1.4,-0.00999999,9.16,0.01,0.0,0.0,0.01,0.0,0.0,1,Lying,4
2019-01-21,17:14:37,-1.23,0.06999999,9.179999,0.01,0.0,0.0,0.01,0.0,0.0,1,Lying,4
2019-01-21,17:14:37,-1.23,0.06999999,9.179999,0.0,-0.01,0.0,0.0,-0.01,0.0,1,Lying,4
2019-01-21,17:14:37,-1.29,-0.030000001000000002,9.2,0.0,-0.01,0.0,0.0,-0.01,0.0,1,Lying,4
2019-01-21,17:14:37,-1.29,-0.030000001000000002,9.2,-0.01,0.0,0.0,-0.01,0.0,0.0,1,Lying,4
2019-01-21,17:14:37,-1.35,-0.07999998,9.19,-0.01,0.0,0.0,-0.01,0.0,0.0,1,Lying,4
2019-01-21,17:14:37,-1.35,-0.07999998,9.19,-0.02,-0.01,0.0,-0.02,-0.01,0.0,1,Lying,4
2019-01-21,17:14:37,-1.23,-0.030000001000000002,9.219999000000001,-0.02,-0.01,0.0,-0.02,-0.01,0.0,1,Lying,4
2019-01-21,17:14:37,-1.23,-0.030000001000000002,9.219999000000001,-0.01,-0.03,0.0,-0.01,-0.03,0.0,1,Lying,4
2019-01-21,17:14:37,-1.41,-0.120000005,9.15,-0.01,-0.03,0.0,-0.01,-0.03,0.0,1,Lying,4
2019-01-21,17:14:37,-1.41,-0.120000005,9.15,0.0,0.02,0.0,0.0,0.02,0.0,1,Lying,4
2019-01-21,17:14:37,-1.29,-0.03999999,9.2,0.0,0.02,0.0,0.0,0.02,0.0,1,Lying,4
2019-01-21,17:14:38,-1.29,-0.03999999,9.2,0.0,0.0,0.01,0.0,0.0,0.01,1,Lying,4
2019-01-21,17:14:38,-1.3,0.04000002,9.19,0.0,0.0,0.01,0.0,0.0,0.01,1,Lying,4
2019-01-21,17:14:38,-1.3,0.04000002,9.19,0.0,0.01,0.0,0.0,0.01,0.0,1,Lying,4
2019-01-21,17:14:38,-1.46,-0.00999999,9.2,0.0,0.01,0.0,0.0,0.01,0.0,1,Lying,4
2019-01-21,17:14:38,-1.46,-0.00999999,9.2,0.0,0.0,-0.01,0.0,0.0,-0.01,1,Lying,4
2019-01-21,17:14:38,-1.21,-0.13999999,9.2,0.0,0.0,-0.01,0.0,0.0,-0.01,1,Lying,4
2019-01-21,17:14:38,-1.21,-0.13999999,9.2,-0.01,-0.03,0.0,-0.01,-0.03,0.0,1,Lying,4
2019-01-21,17:14:38,-1.05,-0.16,9.16,-0.01,-0.03,0.0,-0.01,-0.03,0.0,1,Lying,4
2019-01-21,17:14:38,-1.05,-0.16,9.16,0.0,-0.02,0.01,0.0,-0.02,0.01,1,Lying,4
2019-01-21,17:14:38,-1.26,0.04000002,9.269999499999999,0.0,-0.02,0.01,0.0,-0.02,0.01,1,Lying,4
2019-01-21,17:14:38,-1.26,0.04000002,9.269999499999999,0.0,0.049999997000000004,0.01,0.0,0.049999997000000004,0.01,1,Lying,4
2019-01-21,17:14:38,-1.56,-0.16,9.25,-0.01,0.049999997000000004,-0.02,-0.01,0.049999997000000004,-0.02,1,Lying,4
2019-01-21,17:14:38,-1.56,-0.16,9.25,-0.01,0.049999997000000004,-0.02,-0.01,0.049999997000000004,-0.02,1,Lying,4
2019-01-21,17:14:38,-1.18,0.050000012,8.96,-0.01,0.049999997000000004,-0.02,-0.01,0.049999997000000004,-0.02,1,Lying,4
2019-01-21,17:14:38,-1.18,0.050000012,8.96,0.0,-0.04,0.03,0.0,-0.04,0.03,1,Lying,4
2019-01-21,17:14:38,-1.33,0.00999999,9.179999,0.0,-0.04,0.03,0.0,-0.04,0.03,1,Lying,4
2019-01-21,17:14:38,-1.33,0.00999999,9.179999,0.0,0.02,0.0,0.0,0.02,0.0,1,Lying,4
2019-01-21,17:14:38,-1.38,-0.13,9.07,0.0,0.02,0.0,0.0,0.02,0.0,1,Lying,4
2019-01-21,17:14:38,-1.38,-0.13,9.07,0.0,-0.01,-0.01,0.0,-0.01,-0.01,1,Lying,4
2019-01-21,17:14:38,-1.1,-0.03999999,9.269999499999999,0.0,-0.01,-0.01,0.0,-0.01,-0.01,1,Lying,4
2019-01-21,17:14:38,-1.1,-0.03999999,9.269999499999999,0.0,-0.02,0.01,0.0,-0.02,0.01,1,Lying,4
2019-01-21,17:14:38,-1.47,-0.07999998,9.33,0.0,-0.02,0.01,0.0,-0.02,0.01,1,Lying,4
2019-01-21,17:14:38,-1.47,-0.07999998,9.33,0.0,0.06,0.0,0.0,0.06,0.0,1,Lying,4
2019-01-21,17:14:38,-1.33,-0.109999985,9.129999,0.0,0.06,0.0,0.0,0.06,0.0,1,Lying,4
2019-01-21,17:14:38,-1.33,-0.109999985,9.129999,0.0,0.0,0.0,0.0,0.0,0.0,1,Lying,4
2019-01-21,17:14:38,-1.27,-0.01999998,9.32,0.0,0.0,0.0,0.0,0.0,0.0,1,Lying,4
2019-01-21,17:14:38,-1.27,-0.01999998,9.32,0.0,0.02,0.0,0.0,0.02,0.0,1,Lying,4
2019-01-21,17:14:38,-1.25,-0.14999998,9.17,0.0,0.02,0.0,0.0,0.02,0.0,1,Lying,4
2019-01-21,17:14:38,-1.25,-0.14999998,9.17,0.02,0.03,0.04,0.02,0.03,0.04,1,Lying,4
2019-01-21,17:14:38,-1.5699999,0.11000001400000001,9.41,0.02,0.03,0.04,0.02,0.03,0.04,1,Lying,4
2019-01-21,17:14:38,-1.5699999,0.11000001400000001,9.41,0.02,0.06,0.02,0.02,0.06,0.02,1,Lying,4
2019-01-21,17:14:38,-1.62,-0.00999999,8.91,0.02,0.06,0.02,0.02,0.06,0.02,1,Lying,4
2019-01-21,17:14:38,-1.62,-0.00999999,8.91,-0.04,-0.04,0.0,-0.04,-0.04,0.0,1,Lying,4
2019-01-21,17:14:38,-0.78000003,-0.00999999,9.24,-0.04,-0.04,0.0,-0.04,-0.04,0.0,1,Lying,4
2019-01-21,17:14:38,-0.78000003,-0.00999999,9.24,-0.04,-0.21,0.01,-0.04,-0.21,0.01,1,Lying,4
2019-01-21,17:14:38,-0.84000003,-0.049999982000000005,9.32,-0.04,-0.21,0.01,-0.04,-0.21,0.01,1,Lying,4
2019-01-21,17:14:38,-0.84000003,-0.049999982000000005,9.32,-0.03,-0.12,0.01,-0.03,-0.12,0.01,1,Lying,4
2019-01-21,17:14:38,-1.39,-0.23999998,9.179999,-0.03,-0.12,0.01,-0.03,-0.12,0.01,1,Lying,4
2019-01-21,17:14:38,-1.39,-0.23999998,9.179999,-0.01,0.049999997000000004,0.0,-0.01,0.049999997000000004,0.0,1,Lying,4
2019-01-21,17:14:38,-1.25,-0.17999998,9.24,-0.01,0.049999997000000004,0.0,-0.01,0.049999997000000004,0.0,1,Lying,4
2019-01-21,17:14:38,-1.25,-0.17999998,9.24,0.01,0.01,0.01,0.01,0.01,0.01,1,Lying,4
2019-01-21,17:14:38,-1.03,-0.01999998,9.07,0.01,0.01,0.01,0.01,0.01,0.01,1,Lying,4
2019-01-21,17:14:38,-1.03,-0.01999998,9.07,0.02,-0.01,0.01,0.02,-0.01,0.01,1,Lying,4
2019-01-21,17:14:39,-1.73,-0.049999982000000005,9.25,0.02,-0.01,0.01,0.02,-0.01,0.01,1,Lying,4
2019-01-21,17:14:39,-1.73,-0.049999982000000005,9.25,-0.02,0.02,-0.049999997000000004,-0.02,0.02,-0.049999997000000004,1,Lying,4
2019-01-21,17:14:39,-1.27,-0.19,9.24,-0.02,0.02,-0.049999997000000004,-0.02,0.02,-0.049999997000000004,1,Lying,4
2019-01-21,17:14:39,-1.27,-0.19,9.24,-0.02,-0.11,0.0,-0.02,-0.11,0.0,1,Lying,4
2019-01-21,17:14:39,-1.2,-0.09999999400000001,9.219999000000001,-0.02,-0.11,0.0,-0.02,-0.11,0.0,1,Lying,4
2019-01-21,17:14:39,-1.2,-0.09999999400000001,9.219999000000001,-0.02,-0.12,0.0,-0.02,-0.12,0.0,1,Lying,4
2019-01-21,17:14:39,-1.08,-0.14999998,9.19,-0.02,-0.08,-0.01,-0.02,-0.08,-0.01,1,Lying,4
2019-01-21,17:14:39,-1.08,-0.14999998,9.19,-0.02,-0.08,-0.01,-0.02,-0.08,-0.01,1,Lying,4
2019-01-21,17:14:39,-0.85,-0.01999998,9.28,-0.02,-0.08,-0.01,-0.02,-0.08,-0.01,1,Lying,4
2019-01-21,17:14:39,-0.85,-0.01999998,9.28,0.01,0.0,0.01,0.01,0.0,0.01,1,Lying,4
2019-01-21,17:14:39,-1.4399998999999999,-0.19,9.25,0.01,0.0,0.01,0.01,0.0,0.01,1,Lying,4
2019-01-21,17:14:39,-1.4399998999999999,-0.19,9.25,0.0,0.08,-0.02,0.0,0.08,-0.02,1,Lying,4
2019-01-21,17:14:39,-1.22,-0.09999999400000001,9.16,0.0,0.08,-0.02,0.0,0.08,-0.02,1,Lying,4
2019-01-21,17:14:39,-1.22,-0.09999999400000001,9.16,0.0,0.0,0.0,0.0,0.0,0.0,1,Lying,4
2019-01-21,17:14:39,-1.28,-0.19999999,9.2,0.0,0.0,0.0,0.0,0.0,0.0,1,Lying,4
2019-01-21,17:14:39,-1.28,-0.19999999,9.2,0.0,0.02,0.0,0.0,0.02,0.0,1,Lying,4
2019-01-21,17:14:39,-1.25,-0.09999999400000001,9.2,0.0,0.02,0.0,0.0,0.02,0.0,1,Lying,4
2019-01-21,17:14:39,-1.25,-0.09999999400000001,9.2,0.01,0.049999997000000004,0.0,0.01,0.049999997000000004,0.0,1,Lying,4
2019-01-21,17:14:39,-1.15,-0.060000002000000004,9.259999,0.01,0.049999997000000004,0.0,0.01,0.049999997000000004,0.0,1,Lying,4
2019-01-21,17:14:39,-1.15,-0.060000002000000004,9.259999,0.03,0.049999997000000004,0.02,0.03,0.049999997000000004,0.02,1,Lying,4
2019-01-21,17:14:39,-1.17,-0.01999998,9.219999000000001,0.03,0.049999997000000004,0.02,0.03,0.049999997000000004,0.02,1,Lying,4
2019-01-21,17:14:39,-1.17,-0.01999998,9.219999000000001,0.04,0.08,0.03,0.04,0.08,0.03,1,Lying,4
2019-01-21,17:14:39,-1.33,-0.06999999,9.15,0.04,0.08,0.03,0.04,0.08,0.03,1,Lying,4
2019-01-21,17:14:39,-1.33,-0.06999999,9.15,0.02,0.089999996,0.01,0.02,0.089999996,0.01,1,Lying,4
2019-01-21,17:14:39,-1.29,-0.06999999,9.17,0.02,0.089999996,0.01,0.02,0.089999996,0.01,1,Lying,4
2019-01-21,17:14:39,-1.29,-0.06999999,9.17,0.0,0.04,0.0,0.0,0.04,0.0,1,Lying,4
2019-01-21,17:14:39,-1.23,-0.109999985,9.2,0.0,0.04,0.0,0.0,0.04,0.0,1,Lying,4
2019-01-21,17:14:39,-1.23,-0.109999985,9.2,0.01,0.049999997000000004,0.0,0.01,0.049999997000000004,0.0,1,Lying,4
2019-01-21,17:14:39,-1.48,-0.030000001000000002,9.23,0.01,0.049999997000000004,0.0,0.01,0.049999997000000004,0.0,1,Lying,4
2019-01-21,17:14:39,-1.48,-0.030000001000000002,9.23,0.03,0.12,0.0,0.03,0.12,0.0,1,Lying,4
2019-01-21,17:14:39,-1.75,-0.17999998,9.099999,0.03,0.12,0.0,0.03,0.12,0.0,1,Lying,4
2019-01-21,17:14:39,-1.75,-0.17999998,9.099999,0.01,0.02,-0.01,0.01,0.02,-0.01,1,Lying,4
2019-01-21,17:14:39,-1.07,-0.01999998,9.29,0.01,0.02,-0.01,0.01,0.02,-0.01,1,Lying,4
2019-01-21,17:14:39,-1.07,-0.01999998,9.29,0.01,-0.03,0.01,0.01,-0.03,0.01,1,Lying,4
2019-01-21,17:14:39,-1.33,0.06999999,9.179999,0.01,-0.03,0.01,0.01,-0.03,0.01,1,Lying,4
2019-01-21,17:14:39,-1.33,0.06999999,9.179999,0.02,0.08,0.0,0.02,0.08,0.0,1,Lying,4
2019-01-21,17:14:39,-1.58,-0.03999999,9.049999,0.02,0.08,0.0,0.02,0.08,0.0,1,Lying,4
2019-01-21,17:14:39,-1.58,-0.03999999,9.049999,0.01,0.089999996,0.0,0.01,0.089999996,0.0,1,Lying,4
2019-01-21,17:14:39,-1.39,-0.120000005,9.219999000000001,0.01,0.089999996,0.0,0.01,0.089999996,0.0,1,Lying,4
2019-01-21,17:14:39,-1.39,-0.120000005,9.219999000000001,0.01,0.0,0.0,0.01,0.0,0.0,1,Lying,4
2019-01-21,17:14:39,-1.39,0.120000005,9.11,0.01,0.0,0.0,0.01,0.0,0.0,1,Lying,4
2019-01-21,17:14:39,-1.39,0.120000005,9.11,0.03,0.07,0.01,0.03,0.07,0.01,1,Lying,4
2019-01-21,17:14:39,-1.43,0.100000024,9.24,0.03,0.07,0.01,0.03,0.07,0.01,1,Lying,4
2019-01-21,17:14:39,-1.43,0.100000024,9.24,0.02,0.08,0.01,0.02,0.08,0.01,1,Lying,4
2019-01-21,17:14:39,-1.62,0.030000031,9.17,0.02,0.08,0.01,0.02,0.08,0.01,1,Lying,4
2019-01-21,17:14:39,-1.62,0.030000031,9.17,0.0,0.02,0.0,0.0,0.02,0.0,1,Lying,4
2019-01-21,17:14:39,-1.42,0.04000002,9.11,0.0,0.02,0.0,0.0,0.02,0.0,1,Lying,4
2019-01-21,17:14:40,-1.42,0.04000002,9.11,0.0,-0.03,0.0,0.0,-0.03,0.0,1,Lying,4
2019-01-21,17:14:40,-1.5,0.09000003,9.12,0.0,-0.03,0.0,0.0,-0.03,0.0,1,Lying,4
2019-01-21,17:14:40,-1.5,0.09000003,9.12,0.0,0.0,0.0,0.0,0.0,0.0,1,Lying,4
2019-01-21,17:14:40,-1.6899998999999999,0.09000003,9.16,0.0,0.0,0.0,0.0,0.0,0.0,1,Lying,4
2019-01-21,17:14:40,-1.6899998999999999,0.09000003,9.16,0.0,0.03,0.0,0.0,0.03,0.0,1,Lying,4
2019-01-21,17:14:40,-1.52,-0.060000002000000004,9.16,0.0,0.03,0.0,0.0,0.03,0.0,1,Lying,4
2019-01-21,17:14:40,-1.52,-0.060000002000000004,9.16,0.0,-0.01,0.0,0.0,-0.01,0.0,1,Lying,4
2019-01-21,17:14:40,-1.46,-0.03999999,9.219999000000001,0.0,-0.01,0.0,0.0,-0.01,0.0,1,Lying,4
2019-01-21,17:14:40,-1.46,-0.03999999,9.219999000000001,0.0,0.0,0.0,0.0,0.0,0.0,1,Lying,4
2019-01-21,17:14:40,-1.52,0.0,9.16,0.0,0.0,0.0,0.0,0.0,0.0,1,Lying,4
2019-01-21,17:14:40,-1.52,0.0,9.16,0.0,0.0,0.0,0.0,0.0,0.0,1,Lying,4
2019-01-21,17:14:40,-1.46,0.050000012,9.11,0.0,0.0,0.0,0.0,0.0,0.0,1,Lying,4
2019-01-21,17:14:40,-1.46,0.050000012,9.11,0.0,0.01,0.0,0.0,0.01,0.0,1,Lying,4
2019-01-21,17:14:40,-1.52,0.060000002000000004,9.08,0.0,0.02,0.0,0.0,0.02,0.0,1,Lying,4
2019-01-21,17:14:40,-1.52,0.060000002000000004,9.08,0.0,0.02,0.0,0.0,0.02,0.0,1,Lying,4
2019-01-21,17:14:40,-1.74,-0.030000001000000002,9.219999000000001,0.0,0.02,0.0,0.0,0.02,0.0,1,Lying,4
2019-01-21,17:14:40,-1.74,-0.030000001000000002,9.219999000000001,0.0,0.0,-0.01,0.0,0.0,-0.01,1,Lying,4
2019-01-21,17:14:40,-1.6,0.04000002,9.179999,0.0,0.0,-0.01,0.0,0.0,-0.01,1,Lying,4
2019-01-21,17:14:40,-1.6,0.04000002,9.179999,-0.01,-0.07,0.0,-0.01,-0.07,0.0,1,Lying,4
2019-01-21,17:14:40,-1.4399998999999999,0.04000002,9.11,-0.01,-0.07,0.0,-0.01,-0.07,0.0,1,Lying,4
2019-01-21,17:14:40,-1.4399998999999999,0.04000002,9.11,-0.02,-0.12,0.0,-0.02,-0.12,0.0,1,Lying,4
2019-01-21,17:14:40,-1.35,-0.16999999,9.08,0.0,-0.08,0.0,0.0,-0.08,0.0,1,Lying,4
2019-01-21,17:14:40,-1.35,-0.16999999,9.08,0.0,-0.08,0.0,0.0,-0.08,0.0,1,Lying,4
2019-01-21,17:14:40,-1.25,0.00999999,9.299999,0.0,-0.08,0.0,0.0,-0.08,0.0,1,Lying,4
2019-01-21,17:14:40,-1.25,0.00999999,9.299999,0.02,-0.03,0.0,0.02,-0.03,0.0,1,Lying,4
2019-01-21,17:14:40,-1.92,0.01999998,9.23,0.02,-0.03,0.0,0.02,-0.03,0.0,1,Lying,4
2019-01-21,17:14:40,-1.92,0.01999998,9.23,0.04,0.06,0.0,0.04,0.06,0.0,1,Lying,4
2019-01-21,17:14:40,-1.79,0.17000002,8.9,0.04,0.06,0.0,0.04,0.06,0.0,1,Lying,4
2019-01-21,17:14:40,-1.79,0.17000002,8.9,0.07,0.01,0.049999997000000004,0.07,0.01,0.049999997000000004,1,Lying,4
2019-01-21,17:14:40,-1.25,0.18,9.08,0.07,0.01,0.049999997000000004,0.07,0.01,0.049999997000000004,1,Lying,4
2019-01-21,17:14:40,-1.25,0.18,9.08,0.02,-0.12,0.06,0.02,-0.12,0.06,1,Lying,4
2019-01-21,17:14:40,-1.07,0.100000024,9.21,0.02,-0.12,0.06,0.02,-0.12,0.06,1,Lying,4
2019-01-21,17:14:40,-1.07,0.100000024,9.21,0.0,-0.12,0.04,0.0,-0.12,0.04,1,Lying,4
2019-01-21,17:14:40,-1.23,0.050000012,9.12,0.0,-0.12,0.04,0.0,-0.12,0.04,1,Lying,4
2019-01-21,17:14:40,-1.23,0.050000012,9.12,-0.02,-0.03,0.02,-0.02,-0.03,0.02,1,Lying,4
2019-01-21,17:14:40,-1.16,0.13,9.099999,-0.02,-0.03,0.02,-0.02,-0.03,0.02,1,Lying,4
2019-01-21,17:14:40,-1.16,0.13,9.099999,-0.049999997000000004,-0.06,0.0,-0.049999997000000004,-0.06,0.0,1,Lying,4
2019-01-21,17:14:40,-1.13,-0.060000002000000004,9.21,-0.049999997000000004,-0.06,0.0,-0.049999997000000004,-0.06,0.0,1,Lying,4
2019-01-21,17:14:40,-1.13,-0.060000002000000004,9.21,-0.06,-0.07,-0.01,-0.06,-0.07,-0.01,1,Lying,4
2019-01-21,17:14:40,-1.12,0.07999998,9.25,-0.06,-0.07,-0.01,-0.06,-0.07,-0.01,1,Lying,4
2019-01-21,17:14:40,-1.12,0.07999998,9.25,-0.01,0.04,-0.01,-0.01,0.04,-0.01,1,Lying,4
2019-01-21,17:14:40,-1.36,0.01999998,9.23,-0.01,0.04,-0.01,-0.01,0.04,-0.01,1,Lying,4
2019-01-21,17:14:40,-1.36,0.01999998,9.23,0.0,0.08,-0.01,0.0,0.08,-0.01,1,Lying,4
2019-01-21,17:14:40,-1.41,0.060000002000000004,9.059999000000001,0.0,0.08,-0.01,0.0,0.08,-0.01,1,Lying,4
2019-01-21,17:14:41,-1.41,0.060000002000000004,9.059999000000001,-0.02,0.01,0.0,-0.02,0.01,0.0,1,Lying,4
2019-01-21,17:14:41,-1.34,0.00999999,9.339999,-0.049999997000000004,-0.049999997000000004,-0.01,-0.049999997000000004,-0.049999997000000004,-0.01,1,Lying,4
2019-01-21,17:14:41,-1.34,0.00999999,9.339999,-0.049999997000000004,-0.049999997000000004,-0.01,-0.049999997000000004,-0.049999997000000004,-0.01,1,Lying,4
2019-01-21,17:14:41,-1.08,-0.120000005,9.179999,-0.049999997000000004,-0.049999997000000004,-0.01,-0.049999997000000004,-0.049999997000000004,-0.01,1,Lying,4
2019-01-21,17:14:41,-1.08,-0.120000005,9.179999,-0.03,-0.13,0.0,-0.03,-0.13,0.0,1,Lying,4
2019-01-21,17:14:41,-0.99,-0.060000002000000004,9.17,-0.03,-0.13,0.0,-0.03,-0.13,0.0,1,Lying,4
2019-01-21,17:14:41,-0.99,-0.060000002000000004,9.17,0.0,-0.01,0.01,0.0,-0.01,0.01,1,Lying,4
2019-01-21,17:14:41,-1.07,-0.06999999,9.219999000000001,0.0,-0.01,0.01,0.0,-0.01,0.01,1,Lying,4
2019-01-21,17:14:41,-1.07,-0.06999999,9.219999000000001,0.0,0.01,0.0,0.0,0.01,0.0,1,Lying,4
2019-01-21,17:14:41,-1.25,-0.09,9.17,0.0,0.01,0.0,0.0,0.01,0.0,1,Lying,4
2019-01-21,17:14:41,-1.25,-0.09,9.17,0.01,0.03,0.0,0.01,0.03,0.0,1,Lying,4
2019-01-21,17:14:41,-1.17,-0.00999999,9.23,0.01,0.03,0.0,0.01,0.03,0.0,1,Lying,4
2019-01-21,17:14:41,-1.17,-0.00999999,9.23,0.01,0.03,0.0,0.01,0.03,0.0,1,Lying,4
2019-01-21,17:14:41,-1.22,0.04000002,9.269999499999999,0.01,0.03,0.0,0.01,0.03,0.0,1,Lying,4
2019-01-21,17:14:41,-1.22,0.04000002,9.269999499999999,0.02,0.06,0.0,0.02,0.06,0.0,1,Lying,4
2019-01-21,17:14:41,-1.28,0.060000002000000004,9.179999,0.02,0.06,0.0,0.02,0.06,0.0,1,Lying,4
2019-01-21,17:14:41,-1.28,0.060000002000000004,9.179999,0.01,0.049999997000000004,0.0,0.01,0.049999997000000004,0.0,1,Lying,4
2019-01-21,17:14:41,-1.09,-0.109999985,9.28,0.01,0.049999997000000004,0.0,0.01,0.049999997000000004,0.0,1,Lying,4
2019-01-21,17:14:41,-1.09,-0.109999985,9.28,-0.01,0.0,-0.01,-0.01,0.0,-0.01,1,Lying,4
2019-01-21,17:14:41,-1.23,-0.06999999,9.33,-0.01,0.0,-0.01,-0.01,0.0,-0.01,1,Lying,4
2019-01-21,17:14:41,-1.23,-0.06999999,9.33,0.0,0.04,0.0,0.0,0.04,0.0,1,Lying,4
2019-01-21,17:14:41,-1.41,0.00999999,9.16,0.0,0.04,0.0,0.0,0.04,0.0,1,Lying,4
2019-01-21,17:14:41,-1.41,0.00999999,9.16,0.02,0.08,0.0,0.02,0.08,0.0,1,Lying,4
2019-01-21,17:14:41,-1.34,0.06999999,9.16,0.02,0.08,0.0,0.02,0.08,0.0,1,Lying,4
2019-01-21,17:14:41,-1.34,0.06999999,9.16,0.01,0.03,0.0,0.01,0.03,0.0,1,Lying,4
2019-01-21,17:14:41,-1.35,-0.07999998,9.28,0.0,0.0,0.0,0.0,0.0,0.0,1,Lying,4
2019-01-21,17:14:41,-1.35,-0.07999998,9.28,0.0,0.0,0.0,0.0,0.0,0.0,1,Lying,4
2019-01-21,17:14:41,-1.16,-0.060000002000000004,9.139999000000001,0.0,0.0,0.0,0.0,0.0,0.0,1,Lying,4
2019-01-21,17:14:41,-1.16,-0.060000002000000004,9.139999000000001,0.01,0.0,0.02,0.01,0.0,0.02,1,Lying,4
2019-01-21,17:14:41,-1.29,-0.030000001000000002,9.259999,0.01,0.0,0.02,0.01,0.0,0.02,1,Lying,4
2019-01-21,17:14:41,-1.29,-0.030000001000000002,9.259999,0.01,0.049999997000000004,0.0,0.01,0.049999997000000004,0.0,1,Lying,4
2019-01-21,17:14:41,-1.15,0.01999998,9.19,0.01,0.049999997000000004,0.0,0.01,0.049999997000000004,0.0,1,Lying,4
2019-01-21,17:14:41,-1.15,0.01999998,9.19,0.01,-0.01,0.0,0.01,-0.01,0.0,1,Lying,4
2019-01-21,17:14:41,-1.25,0.100000024,9.21,0.01,-0.01,0.0,0.01,-0.01,0.0,1,Lying,4
2019-01-21,17:14:41,-1.25,0.100000024,9.21,0.01,0.03,0.0,0.01,0.03,0.0,1,Lying,4
2019-01-21,17:14:41,-1.45,0.030000031,9.129999,0.01,0.03,0.0,0.01,0.03,0.0,1,Lying,4
2019-01-21,17:14:41,-1.45,0.030000031,9.129999,0.01,0.06,0.0,0.01,0.06,0.0,1,Lying,4
2019-01-21,17:14:41,-1.36,0.0,9.219999000000001,0.01,0.06,0.0,0.01,0.06,0.0,1,Lying,4
2019-01-21,17:14:41,-1.36,0.0,9.219999000000001,0.0,0.01,0.0,0.0,0.01,0.0,1,Lying,4
2019-01-21,17:14:41,-1.4399998999999999,0.050000012,9.15,0.0,0.01,0.0,0.0,0.01,0.0,1,Lying,4
2019-01-21,17:14:41,-1.4399998999999999,0.050000012,9.15,0.0,0.01,0.0,0.0,0.01,0.0,1,Lying,4
2019-01-21,17:14:41,-1.19,0.01999998,9.2,0.0,0.01,0.0,0.0,0.01,0.0,1,Lying,4
2019-01-21,17:14:41,-1.19,0.01999998,9.2,-0.02,-0.06,-0.01,-0.02,-0.06,-0.01,1,Lying,4
2019-01-21,17:14:42,-1.23,0.0,9.25,-0.02,-0.06,-0.01,-0.02,-0.06,-0.01,1,Lying,4
2019-01-21,17:14:42,-1.23,0.0,9.25,-0.01,-0.01,0.0,-0.01,-0.01,0.0,1,Lying,4
2019-01-21,17:14:42,-1.33,0.030000031,9.16,-0.01,-0.01,0.0,-0.01,-0.01,0.0,1,Lying,4
2019-01-21,17:14:42,-1.33,0.030000031,9.16,0.0,0.03,0.0,0.0,0.03,0.0,1,Lying,4
2019-01-21,17:14:42,-1.52,0.09000003,9.179999,0.0,0.03,0.0,0.0,0.03,0.0,1,Lying,4
2019-01-21,17:14:42,-1.52,0.09000003,9.179999,0.0,0.01,0.0,0.0,0.01,0.0,1,Lying,4
2019-01-21,17:14:42,-1.35,-0.00999999,9.19,0.0,0.01,0.0,0.0,0.01,0.0,1,Lying,4
2019-01-21,17:14:42,-1.35,-0.00999999,9.19,0.0,0.01,0.01,0.0,0.01,0.01,1,Lying,4
2019-01-21,17:14:42,-1.36,0.06999999,9.15,0.0,0.01,0.01,0.0,0.01,0.01,1,Lying,4
2019-01-21,17:14:42,-1.36,0.06999999,9.15,0.0,0.0,0.0,0.0,0.0,0.0,1,Lying,4
2019-01-21,17:14:42,-1.33,-0.01999998,9.24,0.0,0.0,0.0,0.0,0.0,0.0,1,Lying,4
2019-01-21,17:14:42,-1.33,-0.01999998,9.24,-0.01,-0.03,0.0,-0.01,-0.03,0.0,1,Lying,4
2019-01-21,17:14:42,-1.18,-0.049999982000000005,9.16,-0.01,-0.03,0.0,-0.01,-0.03,0.0,1,Lying,4
2019-01-21,17:14:42,-1.18,-0.049999982000000005,9.16,-0.01,-0.04,0.0,-0.01,-0.04,0.0,1,Lying,4
2019-01-21,17:14:42,-1.2,-0.109999985,8.95,-0.01,-0.04,0.0,-0.01,-0.04,0.0,1,Lying,4
2019-01-21,17:14:42,-1.2,-0.109999985,8.95,0.0,0.01,0.0,0.0,0.01,0.0,1,Lying,4
2019-01-21,17:14:42,-1.34,0.00999999,9.089999,0.0,0.01,0.0,0.0,0.01,0.0,1,Lying,4
2019-01-21,17:14:42,-1.34,0.00999999,9.089999,0.0,0.01,0.0,0.0,0.01,0.0,1,Lying,4
2019-01-21,17:14:42,-1.31,-0.00999999,9.15,0.0,0.01,0.0,0.0,0.01,0.0,1,Lying,4
2019-01-21,17:14:42,-1.31,-0.00999999,9.15,0.0,0.02,0.0,0.0,0.02,0.0,1,Lying,4
2019-01-21,17:14:42,-1.3,0.01999998,9.259999,0.0,0.02,0.0,0.0,0.02,0.0,1,Lying,4
2019-01-21,17:14:42,-1.3,0.01999998,9.259999,0.0,0.02,0.0,0.0,0.02,0.0,1,Lying,4
2019-01-21,17:14:42,-1.22,0.030000031,9.139999000000001,0.0,0.02,0.0,0.0,0.02,0.0,1,Lying,4
2019-01-21,17:14:42,-1.22,0.030000031,9.139999000000001,0.0,-0.01,0.0,0.0,-0.01,0.0,1,Lying,4
2019-01-21,17:14:42,-1.3,-0.03999999,9.29,0.0,-0.01,0.0,0.0,-0.01,0.0,1,Lying,4
2019-01-21,17:14:42,-1.3,-0.03999999,9.29,-0.01,0.0,-0.01,-0.01,0.0,-0.01,1,Lying,4
2019-01-21,17:14:42,-1.31,-0.03999999,9.16,-0.01,0.0,-0.01,-0.01,0.0,-0.01,1,Lying,4
2019-01-21,17:14:42,-1.31,-0.03999999,9.16,0.0,0.02,-0.01,0.0,0.02,-0.01,1,Lying,4
2019-01-21,17:14:42,-1.36,0.050000012,9.099999,0.0,0.02,-0.01,0.0,0.02,-0.01,1,Lying,4
2019-01-21,17:14:42,-1.36,0.050000012,9.099999,0.01,0.03,0.0,0.01,0.03,0.0,1,Lying,4
2019-01-21,17:14:42,-1.37,-0.01999998,9.2,0.01,0.03,0.0,0.01,0.03,0.0,1,Lying,4
2019-01-21,17:14:42,-1.37,-0.01999998,9.2,0.0,0.049999997000000004,0.0,0.0,0.049999997000000004,0.0,1,Lying,4
2019-01-21,17:14:42,-1.3,-0.01999998,9.179999,0.0,0.049999997000000004,0.0,0.0,0.049999997000000004,0.0,1,Lying,4
2019-01-21,17:14:42,-1.3,-0.01999998,9.179999,0.0,0.02,0.0,0.0,0.02,0.0,1,Lying,4
2019-01-21,17:14:42,-1.4,-0.06999999,9.299999,0.0,0.02,0.0,0.0,0.02,0.0,1,Lying,4
2019-01-21,17:14:42,-1.4,-0.06999999,9.299999,0.0,0.0,-0.02,0.0,0.0,-0.02,1,Lying,4
2019-01-21,17:14:42,-1.4399998999999999,0.04000002,9.15,0.0,0.0,-0.02,0.0,0.0,-0.02,1,Lying,4
2019-01-21,17:14:42,-1.4399998999999999,0.04000002,9.15,0.01,0.049999997000000004,0.0,0.01,0.049999997000000004,0.0,1,Lying,4
2019-01-21,17:14:42,-1.42,-0.01999998,9.19,0.01,0.049999997000000004,0.0,0.01,0.049999997000000004,0.0,1,Lying,4
2019-01-21,17:14:42,-1.42,-0.01999998,9.19,0.01,0.03,0.01,0.01,0.03,0.01,1,Lying,4
2019-01-21,17:14:42,-1.34,-0.00999999,9.16,0.01,0.03,0.01,0.01,0.03,0.01,1,Lying,4
2019-01-21,17:14:42,-1.34,-0.00999999,9.16,0.0,0.02,0.0,0.0,0.02,0.0,1,Lying,4
2019-01-21,17:14:42,-1.39,0.100000024,9.12,0.0,0.02,0.0,0.0,0.02,0.0,1,Lying,4
2019-01-21,17:14:42,-1.39,0.100000024,9.12,-0.01,0.0,0.0,-0.01,0.0,0.0,1,Lying,4
2019-01-21,17:14:42,-1.5,0.060000002000000004,9.21,-0.01,0.0,0.0,-0.01,0.0,0.0,1,Lying,4
2019-01-21,17:14:43,-1.5,0.060000002000000004,9.21,-0.04,0.0,0.0,-0.04,0.0,0.0,1,Lying,4
2019-01-21,17:14:43,-1.76,-0.120000005,9.179999,-0.08,-0.04,-0.01,-0.08,-0.04,-0.01,1,Lying,4
2019-01-21,17:14:43,-1.76,-0.120000005,9.179999,-0.08,-0.04,-0.01,-0.08,-0.04,-0.01,1,Lying,4
2019-01-21,17:14:43,-0.99,-0.01999998,9.17,-0.08,-0.04,-0.01,-0.08,-0.04,-0.01,1,Lying,4
2019-01-21,17:14:43,-0.99,-0.01999998,9.17,-0.03,-0.21,0.02,-0.03,-0.21,0.02,1,Lying,4
2019-01-21,17:14:43,-0.78000003,-0.060000002000000004,9.16,-0.03,-0.21,0.02,-0.03,-0.21,0.02,1,Lying,4
2019-01-21,17:14:43,-0.78000003,-0.060000002000000004,9.16,-0.02,-0.09999999400000001,0.02,-0.02,-0.09999999400000001,0.02,1,Lying,4
2019-01-21,17:14:43,-1.18,-0.16,9.17,-0.02,-0.09999999400000001,0.02,-0.02,-0.09999999400000001,0.02,1,Lying,4
2019-01-21,17:14:43,-1.18,-0.16,9.17,0.0,0.07,0.0,0.0,0.07,0.0,1,Lying,4
2019-01-21,17:14:43,-1.45,-0.120000005,9.23,0.0,0.07,0.0,0.0,0.07,0.0,1,Lying,4
2019-01-21,17:14:43,-1.45,-0.120000005,9.23,0.0,0.089999996,0.0,0.0,0.089999996,0.0,1,Lying,4
2019-01-21,17:14:43,-1.39,-0.060000002000000004,9.21,0.0,0.089999996,0.0,0.0,0.089999996,0.0,1,Lying,4
2019-01-21,17:14:43,-1.39,-0.060000002000000004,9.21,0.01,0.049999997000000004,0.0,0.01,0.049999997000000004,0.0,1,Lying,4
2019-01-21,17:14:43,-1.48,-0.01999998,9.179999,0.01,0.049999997000000004,0.0,0.01,0.049999997000000004,0.0,1,Lying,4
2019-01-21,17:14:43,-1.48,-0.01999998,9.179999,0.01,0.04,0.0,0.01,0.04,0.0,1,Lying,4
2019-01-21,17:14:43,-1.43,-0.049999982000000005,9.21,0.01,0.04,0.0,0.01,0.04,0.0,1,Lying,4
2019-01-21,17:14:43,-1.43,-0.049999982000000005,9.21,0.0,0.01,0.0,0.0,0.01,0.0,1,Lying,4
2019-01-21,17:14:43,-1.32,-0.09,9.21,0.0,0.01,0.0,0.0,0.01,0.0,1,Lying,4
2019-01-21,17:14:43,-1.32,-0.09,9.21,0.0,0.0,0.0,0.0,0.0,0.0,1,Lying,4
2019-01-21,17:14:43,-1.28,-0.09999999400000001,9.17,0.0,0.0,0.0,0.0,0.0,0.0,1,Lying,4
2019-01-21,17:14:43,-1.28,-0.09999999400000001,9.17,0.0,0.0,0.0,0.0,0.0,0.0,1,Lying,4
2019-01-21,17:14:43,-1.36,-0.14999998,9.19,0.0,0.0,0.0,0.0,0.0,0.0,1,Lying,4
2019-01-21,17:14:43,-1.36,-0.14999998,9.19,0.0,0.04,0.0,0.0,0.04,0.0,1,Lying,4
2019-01-21,17:14:43,-1.33,-0.049999982000000005,9.16,0.0,0.04,0.0,0.0,0.04,0.0,1,Lying,4
2019-01-21,17:14:43,-1.33,-0.049999982000000005,9.16,0.0,0.04,0.0,0.0,0.04,0.0,1,Lying,4
2019-01-21,17:14:43,-1.4399998999999999,-0.06999999,9.19,0.0,0.04,0.0,0.0,0.04,0.0,1,Lying,4
2019-01-21,17:14:43,-1.4399998999999999,-0.06999999,9.19,0.0,0.03,0.0,0.0,0.03,0.0,1,Lying,4
2019-01-21,17:14:43,-1.3,0.030000031,9.17,0.0,0.03,0.0,0.0,0.03,0.0,1,Lying,4
2019-01-21,17:14:43,-1.3,0.030000031,9.17,0.01,0.03,0.0,0.01,0.03,0.0,1,Lying,4
2019-01-21,17:14:43,-1.5699999,-0.09,9.15,0.01,0.03,0.0,0.01,0.03,0.0,1,Lying,4
2019-01-21,17:14:43,-1.5699999,-0.09,9.15,0.01,0.08,0.0,0.01,0.08,0.0,1,Lying,4
2019-01-21,17:14:43,-1.41,-0.01999998,9.2,0.01,0.08,0.0,0.01,0.08,0.0,1,Lying,4
2019-01-21,17:14:43,-1.41,-0.01999998,9.2,0.02,0.07,0.01,0.02,0.07,0.01,1,Lying,4
2019-01-21,17:14:43,-1.5699999,-0.00999999,9.099999,0.02,0.07,0.01,0.02,0.07,0.01,1,Lying,4
2019-01-21,17:14:43,-1.5699999,-0.00999999,9.099999,0.01,0.049999997000000004,0.0,0.01,0.049999997000000004,0.0,1,Lying,4
2019-01-21,17:14:43,-1.4,0.01999998,9.21,0.01,0.049999997000000004,0.0,0.01,0.049999997000000004,0.0,1,Lying,4
2019-01-21,17:14:43,-1.4,0.01999998,9.21,0.01,0.01,0.0,0.01,0.01,0.0,1,Lying,4
2019-01-21,17:14:43,-1.49,-0.01999998,9.129999,0.01,0.01,0.0,0.01,0.01,0.0,1,Lying,4
2019-01-21,17:14:43,-1.49,-0.01999998,9.129999,0.01,0.03,0.0,0.01,0.03,0.0,1,Lying,4
2019-01-21,17:14:43,-1.54,-0.03999999,9.17,0.01,0.03,0.0,0.01,0.03,0.0,1,Lying,4
2019-01-21,17:14:43,-1.54,-0.03999999,9.17,0.0,0.01,0.0,0.0,0.01,0.0,1,Lying,4
2019-01-21,17:14:43,-1.4399998999999999,-0.09,9.08,0.0,0.01,0.0,0.0,0.01,0.0,1,Lying,4
2019-01-21,17:14:43,-1.4399998999999999,-0.09,9.08,0.0,0.0,0.0,0.0,0.0,0.0,1,Lying,4
2019-01-21,17:14:43,-1.4,-0.01999998,9.23,0.0,0.0,0.0,0.0,0.0,0.0,1,Lying,4
2019-01-21,17:14:43,-1.4,-0.01999998,9.23,0.0,0.0,0.0,0.0,0.0,0.0,1,Lying,4
2019-01-21,17:14:43,-1.51,0.01999998,9.219999000000001,0.0,0.0,0.0,0.0,0.0,0.0,1,Lying,4
2019-01-21,17:14:43,-1.51,0.01999998,9.219999000000001,0.0,0.04,0.0,0.0,0.04,0.0,1,Lying,4
2019-01-21,17:14:44,-1.62,0.00999999,9.21,0.0,0.04,0.0,0.0,0.04,0.0,1,Lying,4
2019-01-21,17:14:44,-1.62,0.00999999,9.21,0.0,0.03,0.0,0.0,0.03,0.0,1,Lying,4
2019-01-21,17:14:44,-1.54,0.0,9.129999,0.0,0.03,0.0,0.0,0.03,0.0,1,Lying,4
2019-01-21,17:14:44,-1.54,0.0,9.129999,0.0,0.0,0.0,0.0,0.0,0.0,1,Lying,4
2019-01-21,17:14:44,-1.46,-0.049999982000000005,9.2,0.0,0.0,0.0,0.0,0.0,0.0,1,Lying,4
2019-01-21,17:14:44,-1.46,-0.049999982000000005,9.2,0.0,0.01,0.0,0.0,0.01,0.0,1,Lying,4
2019-01-21,17:14:44,-1.54,-0.03999999,9.15,0.0,0.01,0.0,0.0,0.01,0.0,1,Lying,4
2019-01-21,17:14:44,-1.54,-0.03999999,9.15,0.01,0.04,0.01,0.01,0.04,0.01,1,Lying,4
2019-01-21,17:14:44,-1.54,-0.00999999,9.12,0.01,0.04,0.01,0.01,0.04,0.01,1,Lying,4
2019-01-21,17:14:44,-1.54,-0.00999999,9.12,0.01,0.049999997000000004,0.0,0.01,0.049999997000000004,0.0,1,Lying,4
2019-01-21,17:14:44,-1.62,0.050000012,9.129999,0.01,0.049999997000000004,0.0,0.01,0.049999997000000004,0.0,1,Lying,4
2019-01-21,17:14:44,-1.62,0.050000012,9.129999,0.01,0.049999997000000004,0.0,0.01,0.049999997000000004,0.0,1,Lying,4
2019-01-21,17:14:44,-1.61,0.00999999,9.11,0.01,0.049999997000000004,0.0,0.01,0.049999997000000004,0.0,1,Lying,4
2019-01-21,17:14:44,-1.61,0.00999999,9.11,0.0,0.03,0.0,0.0,0.03,0.0,1,Lying,4
2019-01-21,17:14:44,-1.77,0.0,9.11,0.0,0.03,0.0,0.0,0.03,0.0,1,Lying,4
2019-01-21,17:14:44,-1.77,0.0,9.11,0.0,0.03,0.0,0.0,0.03,0.0,1,Lying,4
2019-01-21,17:14:44,-1.63,0.04000002,9.24,0.0,0.03,0.0,0.0,0.03,0.0,1,Lying,4
2019-01-21,17:14:44,-1.63,0.04000002,9.24,0.0,0.01,0.0,0.0,0.01,0.0,1,Lying,4
2019-01-21,17:14:44,-1.5,0.04000002,9.12,0.0,0.01,0.0,0.0,0.01,0.0,1,Lying,4
2019-01-21,17:14:44,-1.5,0.04000002,9.12,0.0,0.0,0.0,0.0,0.0,0.0,1,Lying,4
2019-01-21,17:14:44,-1.64,-0.00999999,9.19,0.0,0.0,0.0,0.0,0.0,0.0,1,Lying,4
2019-01-21,17:14:44,-1.64,-0.00999999,9.19,0.0,0.01,0.0,0.0,0.01,0.0,1,Lying,4
2019-01-21,17:14:44,-1.61,0.00999999,9.089999,0.0,0.01,0.0,0.0,0.01,0.0,1,Lying,4
2019-01-21,17:14:44,-1.61,0.00999999,9.089999,0.0,0.02,0.0,0.0,0.02,0.0,1,Lying,4
2019-01-21,17:14:44,-1.65,0.04000002,9.129999,0.0,0.02,0.0,0.0,0.02,0.0,1,Lying,4
2019-01-21,17:14:44,-1.65,0.04000002,9.129999,0.0,0.03,0.0,0.0,0.03,0.0,1,Lying,4
2019-01-21,17:14:44,-1.7,0.050000012,9.07,0.0,0.03,0.0,0.0,0.03,0.0,1,Lying,4
2019-01-21,17:14:44,-1.7,0.050000012,9.07,0.0,0.02,0.0,0.0,0.02,0.0,1,Lying,4
2019-01-21,17:14:44,-1.76,0.050000012,9.12,0.0,0.02,0.0,0.0,0.02,0.0,1,Lying,4
2019-01-21,17:14:44,-1.76,0.050000012,9.12,0.0,0.0,0.0,0.0,0.0,0.0,1,Lying,4
2019-01-21,17:14:44,-1.65,0.09000003,9.17,0.0,0.0,0.0,0.0,0.0,0.0,1,Lying,4
2019-01-21,17:14:44,-1.65,0.09000003,9.17,0.0,-0.01,0.0,0.0,-0.01,0.0,1,Lying,4
2019-01-21,17:14:44,-1.71,0.01999998,9.129999,0.0,-0.01,0.0,0.0,-0.01,0.0,1,Lying,4
2019-01-21,17:14:44,-1.71,0.01999998,9.129999,0.0,-0.01,0.0,0.0,-0.01,0.0,1,Lying,4
2019-01-21,17:14:44,-1.61,0.01999998,9.08,0.0,-0.01,0.0,0.0,-0.01,0.0,1,Lying,4
2019-01-21,17:14:44,-1.61,0.01999998,9.08,0.0,-0.01,0.0,0.0,-0.01,0.0,1,Lying,4
2019-01-21,17:14:44,-1.61,-0.00999999,9.129999,0.0,-0.01,0.0,0.0,-0.01,0.0,1,Lying,4
2019-01-21,17:14:44,-1.61,-0.00999999,9.129999,0.0,-0.01,0.0,0.0,-0.01,0.0,1,Lying,4
2019-01-21,17:14:44,-1.7,-0.03999999,9.129999,0.0,-0.01,0.0,0.0,-0.01,0.0,1,Lying,4
2019-01-21,17:14:44,-1.7,-0.03999999,9.129999,0.0,0.0,0.0,0.0,0.0,0.0,1,Lying,4
2019-01-21,17:14:44,-1.63,0.01999998,9.129999,0.0,0.0,0.0,0.0,0.0,0.0,1,Lying,4
2019-01-21,17:14:44,-1.63,0.01999998,9.129999,0.0,0.0,0.0,0.0,0.0,0.0,1,Lying,4
2019-01-21,17:14:44,-1.64,0.060000002000000004,9.19,0.0,0.0,0.0,0.0,0.0,0.0,1,Lying,4
2019-01-21,17:14:44,-1.64,0.060000002000000004,9.19,0.0,0.01,0.0,0.0,0.01,0.0,1,Lying,4
2019-01-21,17:14:44,-1.77,-0.03999999,9.16,0.0,0.01,0.0,0.0,0.01,0.0,1,Lying,4
2019-01-21,17:14:44,-1.77,-0.03999999,9.16,0.0,0.0,0.0,0.0,0.0,0.0,1,Lying,4
2019-01-21,17:14:45,-1.65,0.060000002000000004,9.17,0.0,0.0,0.0,0.0,0.0,0.0,1,Lying,4
2019-01-21,17:14:45,-1.65,0.060000002000000004,9.17,0.0,0.0,0.0,0.0,0.0,0.0,1,Lying,4
2019-01-21,17:14:45,-1.56,0.030000031,9.129999,0.0,0.0,0.0,0.0,0.0,0.0,1,Lying,4
2019-01-21,17:14:45,-1.56,0.030000031,9.129999,0.0,0.0,0.0,0.0,0.0,0.0,1,Lying,4
2019-01-21,17:14:45,-1.6899998999999999,-0.00999999,9.08,0.0,0.0,0.0,0.0,0.0,0.0,1,Lying,4
2019-01-21,17:14:45,-1.6899998999999999,-0.00999999,9.08,0.0,0.03,0.0,0.0,0.03,0.0,1,Lying,4
2019-01-21,17:14:45,-1.68,0.04000002,9.049999,0.0,0.03,0.0,0.0,0.03,0.0,1,Lying,4
2019-01-21,17:14:45,-1.68,0.04000002,9.049999,0.0,0.01,0.0,0.0,0.01,0.0,1,Lying,4
2019-01-21,17:14:45,-1.65,0.04000002,9.219999000000001,0.0,0.01,0.0,0.0,0.01,0.0,1,Lying,4
2019-01-21,17:14:45,-1.65,0.04000002,9.219999000000001,0.0,0.0,0.0,0.0,0.0,0.0,1,Lying,4
2019-01-21,17:14:45,-1.8,0.0,9.15,0.0,0.0,0.0,0.0,0.0,0.0,1,Lying,4
2019-01-21,17:14:45,-1.8,0.0,9.15,0.0,0.01,0.0,0.0,0.01,0.0,1,Lying,4
2019-01-21,17:14:45,-1.62,0.030000031,9.08,0.0,0.01,0.0,0.0,0.01,0.0,1,Lying,4
2019-01-21,17:14:45,-1.62,0.030000031,9.08,0.0,0.0,0.0,0.0,0.0,0.0,1,Lying,4
2019-01-21,17:14:45,-1.64,0.030000031,9.16,0.0,0.0,0.0,0.0,0.0,0.0,1,Lying,4
2019-01-21,17:14:45,-1.64,0.030000031,9.16,0.0,0.01,0.0,0.0,0.01,0.0,1,Lying,4
2019-01-21,17:14:45,-1.68,0.050000012,9.139999000000001,0.0,0.01,0.0,0.0,0.01,0.0,1,Lying,4
2019-01-21,17:14:45,-1.68,0.050000012,9.139999000000001,0.01,0.03,0.0,0.01,0.03,0.0,1,Lying,4
2019-01-21,17:14:45,-1.72,0.0,9.139999000000001,0.01,0.03,0.0,0.01,0.03,0.0,1,Lying,4
2019-01-21,17:14:45,-1.72,0.0,9.139999000000001,0.01,0.03,0.0,0.01,0.03,0.0,1,Lying,4
2019-01-21,17:14:45,-1.65,0.09000003,9.129999,0.01,0.03,0.0,0.01,0.03,0.0,1,Lying,4
2019-01-21,17:14:45,-1.65,0.09000003,9.129999,0.01,0.02,0.01,0.01,0.02,0.01,1,Lying,4
2019-01-21,17:14:45,-1.88,0.050000012,9.16,0.01,0.02,0.01,0.01,0.02,0.01,1,Lying,4
2019-01-21,17:14:45,-1.88,0.050000012,9.16,0.01,0.04,0.01,0.01,0.04,0.01,1,Lying,4
2019-01-21,17:14:45,-1.89,0.11000001400000001,9.059999000000001,0.01,0.04,0.01,0.01,0.04,0.01,1,Lying,4
2019-01-21,17:14:45,-1.89,0.11000001400000001,9.059999000000001,0.0,0.01,0.0,0.0,0.01,0.0,1,Lying,4
2019-01-21,17:14:45,-1.65,0.060000002000000004,9.099999,0.0,0.01,0.0,0.0,0.01,0.0,1,Lying,4
2019-01-21,17:14:45,-1.65,0.060000002000000004,9.099999,-0.01,-0.049999997000000004,0.01,-0.01,-0.049999997000000004,0.01,1,Lying,4
2019-01-21,17:14:45,-1.52,-0.03999999,9.129999,-0.01,-0.049999997000000004,0.01,-0.01,-0.049999997000000004,0.01,1,Lying,4
2019-01-21,17:14:45,-1.52,-0.03999999,9.129999,0.0,-0.01,0.01,0.0,-0.01,0.01,1,Lying,4
2019-01-21,17:14:45,-1.81,-0.00999999,9.219999000000001,0.0,-0.01,0.01,0.0,-0.01,0.01,1,Lying,4
2019-01-21,17:14:45,-1.81,-0.00999999,9.219999000000001,0.0,0.03,-0.01,0.0,0.03,-0.01,1,Lying,4
2019-01-21,17:14:45,-1.72,0.100000024,9.08,0.0,0.03,-0.01,0.0,0.03,-0.01,1,Lying,4
2019-01-21,17:14:45,-1.72,0.100000024,9.08,0.01,-0.03,0.0,0.01,-0.03,0.0,1,Lying,4
2019-01-21,17:14:45,-1.59,0.030000031,9.21,0.01,-0.03,0.0,0.01,-0.03,0.0,1,Lying,4
2019-01-21,17:14:45,-1.59,0.030000031,9.21,0.0,-0.02,0.0,0.0,-0.02,0.0,1,Lying,4
2019-01-21,17:14:45,-1.8199999,0.100000024,9.099999,0.0,-0.02,0.0,0.0,-0.02,0.0,1,Lying,4
2019-01-21,17:14:45,-1.8199999,0.100000024,9.099999,0.0,0.03,0.0,0.0,0.03,0.0,1,Lying,4
2019-01-21,17:14:45,-1.66,0.060000002000000004,9.179999,0.0,0.03,0.0,0.0,0.03,0.0,1,Lying,4
2019-01-21,17:14:45,-1.66,0.060000002000000004,9.179999,0.0,-0.01,0.0,0.0,-0.01,0.0,1,Lying,4
2019-01-21,17:14:45,-1.68,0.07999998,9.269999499999999,0.0,-0.01,0.0,0.0,-0.01,0.0,1,Lying,4
2019-01-21,17:14:45,-1.68,0.07999998,9.269999499999999,0.0,0.0,0.0,0.0,0.0,0.0,1,Lying,4
2019-01-21,17:14:46,-1.83,0.04000002,9.04,0.0,0.0,0.0,0.0,0.0,0.0,1,Lying,4
2019-01-21,17:14:46,-1.83,0.04000002,9.04,0.0,0.0,0.0,0.0,0.0,0.0,1,Lying,4
2019-01-21,17:14:46,-1.55,0.07999998,9.019999499999999,0.0,0.0,0.0,0.0,0.0,0.0,1,Lying,4
2019-01-21,17:14:46,-1.55,0.07999998,9.019999499999999,0.0,-0.04,0.02,0.0,-0.04,0.02,1,Lying,4
2019-01-21,17:14:46,-1.5699999,0.04000002,9.11,0.0,-0.04,0.02,0.0,-0.04,0.02,1,Lying,4
2019-01-21,17:14:46,-1.5699999,0.04000002,9.11,-0.01,-0.04,0.0,-0.01,-0.04,0.0,1,Lying,4
2019-01-21,17:14:46,-1.6,0.01999998,9.139999000000001,-0.01,-0.04,0.0,-0.01,-0.04,0.0,1,Lying,4
2019-01-21,17:14:46,-1.6,0.01999998,9.139999000000001,0.0,-0.01,0.0,0.0,-0.01,0.0,1,Lying,4
2019-01-21,17:14:46,-1.64,0.060000002000000004,9.219999000000001,0.0,-0.01,0.0,0.0,-0.01,0.0,1,Lying,4
2019-01-21,17:14:46,-1.64,0.060000002000000004,9.219999000000001,0.0,0.0,0.0,0.0,0.0,0.0,1,Lying,4
2019-01-21,17:14:46,-1.92,-0.01999998,9.21,0.0,0.0,0.0,0.0,0.0,0.0,1,Lying,4
2019-01-21,17:14:46,-1.92,-0.01999998,9.21,0.0,0.0,-0.01,0.0,0.0,-0.01,1,Lying,4
2019-01-21,17:14:46,-1.5,0.13999999,9.009999,0.0,0.0,-0.01,0.0,0.0,-0.01,1,Lying,4
2019-01-21,17:14:46,-1.5,0.13999999,9.009999,0.0,-0.07,0.0,0.0,-0.07,0.0,1,Lying,4
2019-01-21,17:14:46,-1.37,0.16000003,9.11,0.0,-0.07,0.0,0.0,-0.07,0.0,1,Lying,4
2019-01-21,17:14:46,-1.37,0.16000003,9.11,0.0,0.0,0.01,0.0,0.0,0.01,1,Lying,4
2019-01-21,17:14:46,-1.79,-0.060000002000000004,9.179999,0.0,0.0,0.01,0.0,0.0,0.01,1,Lying,4
2019-01-21,17:14:46,-1.79,-0.060000002000000004,9.179999,-0.01,-0.01,-0.01,-0.01,-0.01,-0.01,1,Lying,4
2019-01-21,17:14:46,-1.45,-0.030000001000000002,9.269999499999999,-0.01,-0.01,-0.01,-0.01,-0.01,-0.01,1,Lying,4
2019-01-21,17:14:46,-1.45,-0.030000001000000002,9.269999499999999,0.0,0.0,0.0,0.0,0.0,0.0,1,Lying,4
2019-01-21,17:14:46,-1.68,0.17000002,9.129999,0.0,0.0,0.0,0.0,0.0,0.0,1,Lying,4
2019-01-21,17:14:46,-1.68,0.17000002,9.129999,0.02,0.03,0.0,0.02,0.03,0.0,1,Lying,4
2019-01-21,17:14:46,-1.62,0.13,9.19,0.02,0.03,0.0,0.02,0.03,0.0,1,Lying,4
2019-01-21,17:14:46,-1.62,0.13,9.19,0.01,0.03,0.01,0.01,0.03,0.01,1,Lying,4
2019-01-21,17:14:46,-1.68,0.060000002000000004,8.95,0.01,0.03,0.01,0.01,0.03,0.01,1,Lying,4
2019-01-21,17:14:46,-1.68,0.060000002000000004,8.95,0.02,0.07,0.02,0.02,0.07,0.02,1,Lying,4
2019-01-21,17:14:46,-1.5699999,0.01999998,9.11,0.02,0.07,0.02,0.02,0.07,0.02,1,Lying,4
2019-01-21,17:14:46,-1.5699999,0.01999998,9.11,0.01,0.02,0.01,0.01,0.02,0.01,1,Lying,4
2019-01-21,17:14:46,-1.5699999,-0.00999999,9.24,0.01,0.02,0.01,0.01,0.02,0.01,1,Lying,4
2019-01-21,17:14:46,-1.5699999,-0.00999999,9.24,0.0,0.02,0.01,0.0,0.02,0.01,1,Lying,4
2019-01-21,17:14:46,-1.76,0.0,9.099999,0.0,0.02,0.01,0.0,0.02,0.01,1,Lying,4
2019-01-21,17:14:46,-1.76,0.0,9.099999,0.0,0.04,0.0,0.0,0.04,0.0,1,Lying,4
2019-01-21,17:14:46,-1.65,0.06999999,9.219999000000001,0.0,0.04,0.0,0.0,0.04,0.0,1,Lying,4
2019-01-21,17:14:46,-1.65,0.06999999,9.219999000000001,0.0,0.0,0.0,0.0,0.0,0.0,1,Lying,4
2019-01-21,17:14:46,-1.75,0.18,9.049999,0.0,0.0,0.0,0.0,0.0,0.0,1,Lying,4
2019-01-21,17:14:46,-1.75,0.18,9.049999,0.0,0.01,-0.01,0.0,0.01,-0.01,1,Lying,4
2019-01-21,17:14:46,-1.86,0.06999999,9.08,0.0,0.01,-0.01,0.0,0.01,-0.01,1,Lying,4
2019-01-21,17:14:46,-1.86,0.06999999,9.08,0.0,0.03,-0.02,0.0,0.03,-0.02,1,Lying,4
2019-01-21,17:14:46,-1.96,0.00999999,9.23,0.0,0.03,-0.02,0.0,0.03,-0.02,1,Lying,4
2019-01-21,17:14:46,-1.96,0.00999999,9.23,-0.02,-0.03,-0.03,-0.02,-0.03,-0.03,1,Lying,4
2019-01-21,17:14:46,-1.61,0.100000024,9.16,-0.02,-0.03,-0.03,-0.02,-0.03,-0.03,1,Lying,4
2019-01-21,17:14:46,-1.61,0.100000024,9.16,0.0,-0.06,0.0,0.0,-0.06,0.0,1,Lying,4
2019-01-21,17:14:46,-1.45,0.19,9.129999,0.0,-0.06,0.0,0.0,-0.06,0.0,1,Lying,4
2019-01-21,17:14:46,-1.45,0.19,9.129999,0.01,0.02,0.02,0.01,0.02,0.02,1,Lying,4
2019-01-21,17:14:46,-1.87,-0.00999999,9.08,0.01,0.02,0.02,0.01,0.02,0.02,1,Lying,4
2019-01-21,17:14:46,-1.87,-0.00999999,9.08,0.01,0.07,0.0,0.01,0.07,0.0,1,Lying,4
2019-01-21,17:14:46,-1.62,0.01999998,9.15,0.01,0.07,0.0,0.01,0.07,0.0,1,Lying,4
2019-01-21,17:14:47,-1.62,0.01999998,9.15,0.0,-0.02,0.0,0.0,-0.02,0.0,1,Lying,4
2019-01-21,17:14:47,-1.33,0.100000024,9.139999000000001,0.0,-0.02,0.0,0.0,-0.02,0.0,1,Lying,4
2019-01-21,17:14:47,-1.33,0.100000024,9.139999000000001,0.0,-0.04,0.0,0.0,-0.04,0.0,1,Lying,4
2019-01-21,17:14:47,-1.8,0.06999999,9.089999,0.0,-0.04,0.0,0.0,-0.04,0.0,1,Lying,4
2019-01-21,17:14:47,-1.8,0.06999999,9.089999,0.01,0.089999996,0.0,0.01,0.089999996,0.0,1,Lying,4
2019-01-21,17:14:47,-1.88,0.20999998,9.16,0.01,0.089999996,0.0,0.01,0.089999996,0.0,1,Lying,4
2019-01-21,17:14:47,-1.88,0.20999998,9.16,0.01,0.06,0.0,0.01,0.06,0.0,1,Lying,4
2019-01-21,17:14:47,-1.83,0.19999999,8.929999,0.01,0.06,0.0,0.01,0.06,0.0,1,Lying,4
2019-01-21,17:14:47,-1.83,0.19999999,8.929999,0.01,0.02,0.01,0.01,0.02,0.01,1,Lying,4
2019-01-21,17:14:47,-1.66,0.01999998,9.179999,0.01,0.02,0.01,0.01,0.02,0.01,1,Lying,4
2019-01-21,17:14:47,-1.66,0.01999998,9.179999,0.0,-0.01,0.0,0.0,-0.01,0.0,1,Lying,4
2019-01-21,17:14:47,-1.5,0.09000003,9.19,0.0,-0.01,0.0,0.0,-0.01,0.0,1,Lying,4
2019-01-21,17:14:47,-1.5,0.09000003,9.19,0.01,-0.01,0.0,0.01,-0.01,0.0,1,Lying,4
2019-01-21,17:14:47,-1.88,0.09000003,9.19,0.01,-0.01,0.0,0.01,-0.01,0.0,1,Lying,4
2019-01-21,17:14:47,-1.88,0.09000003,9.19,0.0,0.049999997000000004,0.0,0.0,0.049999997000000004,0.0,1,Lying,4
2019-01-21,17:14:47,-1.9499999,0.09000003,9.12,0.0,0.049999997000000004,0.0,0.0,0.049999997000000004,0.0,1,Lying,4
2019-01-21,17:14:47,-1.9499999,0.09000003,9.12,0.0,0.04,0.0,0.0,0.04,0.0,1,Lying,4
2019-01-21,17:14:47,-1.59,0.16000003,9.11,0.0,0.04,0.0,0.0,0.04,0.0,1,Lying,4
2019-01-21,17:14:47,-1.59,0.16000003,9.11,0.0,-0.06,0.0,0.0,-0.06,0.0,1,Lying,4
2019-01-21,17:14:47,-1.56,0.17000002,9.11,0.0,-0.06,0.0,0.0,-0.06,0.0,1,Lying,4
2019-01-21,17:14:47,-1.56,0.17000002,9.11,0.0,0.0,0.0,0.0,0.0,0.0,1,Lying,4
2019-01-21,17:14:47,-1.86,0.11000001400000001,9.17,0.0,0.0,0.0,0.0,0.0,0.0,1,Lying,4
2019-01-21,17:14:47,-1.86,0.11000001400000001,9.17,0.0,0.01,0.0,0.0,0.01,0.0,1,Lying,4
2019-01-21,17:14:47,-1.66,0.06999999,9.179999,0.0,0.01,0.0,0.0,0.01,0.0,1,Lying,4
2019-01-21,17:14:47,-1.66,0.06999999,9.179999,-0.01,-0.03,0.0,-0.01,-0.03,0.0,1,Lying,4
2019-01-21,17:14:47,-1.67,0.06999999,9.19,-0.01,-0.03,0.0,-0.01,-0.03,0.0,1,Lying,4
2019-01-21,17:14:47,-1.67,0.06999999,9.19,0.0,0.0,0.0,0.0,0.0,0.0,1,Lying,4
2019-01-21,17:14:47,-1.77,0.13999999,9.059999000000001,0.0,0.0,0.0,0.0,0.0,0.0,1,Lying,4
2019-01-21,17:14:47,-1.77,0.13999999,9.059999000000001,0.0,0.01,0.0,0.0,0.01,0.0,1,Lying,4
2019-01-21,17:14:47,-1.83,0.06999999,9.049999,0.0,0.01,0.0,0.0,0.01,0.0,1,Lying,4
2019-01-21,17:14:47,-1.83,0.06999999,9.049999,0.0,0.02,0.0,0.0,0.02,0.0,1,Lying,4
2019-01-21,17:14:47,-1.49,0.120000005,9.24,0.0,0.02,0.0,0.0,0.02,0.0,1,Lying,4
2019-01-21,17:14:47,-1.49,0.120000005,9.24,0.0,-0.02,0.01,0.0,-0.02,0.01,1,Lying,4
2019-01-21,17:14:47,-1.84,0.14999998,9.11,0.0,-0.02,0.01,0.0,-0.02,0.01,1,Lying,4
2019-01-21,17:14:47,-1.84,0.14999998,9.11,0.0,0.03,0.0,0.0,0.03,0.0,1,Lying,4
2019-01-21,17:14:47,-1.74,0.14999998,9.129999,0.0,0.03,0.0,0.0,0.03,0.0,1,Lying,4
2019-01-21,17:14:47,-1.74,0.14999998,9.129999,0.0,0.01,0.0,0.0,0.01,0.0,1,Lying,4
2019-01-21,17:14:47,-1.91,0.100000024,9.17,0.0,0.01,0.0,0.0,0.01,0.0,1,Lying,4
2019-01-21,17:14:47,-1.91,0.100000024,9.17,0.0,0.01,-0.01,0.0,0.01,-0.01,1,Lying,4
2019-01-21,17:14:47,-1.68,0.13999999,9.129999,0.0,0.01,-0.01,0.0,0.01,-0.01,1,Lying,4
2019-01-21,17:14:47,-1.68,0.13999999,9.129999,0.0,0.0,0.0,0.0,0.0,0.0,1,Lying,4
2019-01-21,17:14:47,-1.4,0.120000005,9.269999499999999,0.0,0.0,0.0,0.0,0.0,0.0,1,Lying,4
2019-01-21,17:14:47,-1.4,0.120000005,9.269999499999999,0.0,0.03,0.0,0.0,0.03,0.0,1,Lying,4
2019-01-21,17:14:47,-1.35,-0.32999998,9.74,0.02,0.19999999,0.0,0.02,0.19999999,0.0,1,Lying,4
2019-01-21,17:14:47,-1.35,-0.32999998,9.74,0.02,0.19999999,0.0,0.02,0.19999999,0.0,1,Lying,4
2019-01-21,17:14:48,-1.21,-0.54999995,9.799999,0.02,0.19999999,0.0,0.02,0.19999999,0.0,1,Lying,4
2019-01-21,17:14:48,-1.21,-0.54999995,9.799999,0.22,0.79999995,0.09999999400000001,0.22,0.79999995,0.09999999400000001,1,Lying,4
2019-01-21,17:14:48,-1.4,0.14999998,8.91,0.31,0.91999996,0.17,0.31,0.91999996,0.17,1,Lying,4
2019-01-21,17:14:48,-1.4,0.14999998,8.91,0.31,0.91999996,0.17,0.31,0.91999996,0.17,1,Lying,4
2019-01-21,17:14:48,-1.66,0.72,8.5,0.31,0.91999996,0.17,0.31,0.91999996,0.17,1,Lying,4
2019-01-21,17:14:48,-1.66,0.72,8.5,0.35,0.31,-0.21,0.35,0.31,-0.21,1,Lying,4
2019-01-21,17:14:48,-1.6899998999999999,0.88,8.66,0.35,0.31,-0.21,0.35,0.31,-0.21,1,Lying,4
2019-01-21,17:14:48,-1.6899998999999999,0.88,8.66,0.12,-0.41,-0.74,0.12,-0.41,-0.74,1,Lying,4
2019-01-21,17:14:48,-2.3799999,0.32999998,8.41,0.12,-0.41,-0.74,0.12,-0.41,-0.74,1,Lying,4
2019-01-21,17:14:48,-2.3799999,0.32999998,8.41,0.07,-0.13,-0.93,0.07,-0.13,-0.93,1,Lying,4
2019-01-21,17:14:48,-1.79,0.45999998,7.7799997,0.07,-0.13,-0.93,0.07,-0.13,-0.93,1,Lying,4
2019-01-21,17:14:48,-1.79,0.45999998,7.7799997,0.17,0.09999999400000001,-0.72999996,0.17,0.09999999400000001,-0.72999996,1,Lying,4
2019-01-21,17:14:48,-1.84,0.26999998,7.4799995,0.17,0.09999999400000001,-0.72999996,0.17,0.09999999400000001,-0.72999996,1,Lying,4
2019-01-21,17:14:48,-1.84,0.26999998,7.4799995,0.02,0.76,-0.9,0.02,0.76,-0.9,1,Lying,4
2019-01-21,17:14:48,-3.71,-0.17999998,6.2799997,0.02,0.76,-0.9,0.02,0.76,-0.9,1,Lying,4
2019-01-21,17:14:48,-3.71,-0.17999998,6.2799997,-0.02,-0.14999999,-1.54,-0.02,-0.14999999,-1.54,1,Lying,4
2019-01-21,17:14:48,-3.82,-0.84999996,7.1699996,-0.02,-0.14999999,-1.54,-0.02,-0.14999999,-1.54,1,Lying,4
2019-01-21,17:14:48,-3.82,-0.84999996,7.1699996,-0.48,-0.21,-1.5899999,-0.48,-0.21,-1.5899999,1,Lying,4
2019-01-21,17:14:48,-4.5399995,-0.59999996,8.58,-0.48,-0.21,-1.5899999,-0.48,-0.21,-1.5899999,1,Lying,4
2019-01-21,17:14:48,-4.5399995,-0.59999996,8.58,-0.72999996,-0.42999998,-1.37,-0.72999996,-0.42999998,-1.37,1,Lying,4
2019-01-21,17:14:48,-5.1299996,-2.6,11.9,-0.72999996,-0.42999998,-1.37,-0.72999996,-0.42999998,-1.37,1,Lying,4
2019-01-21,17:14:48,-5.1299996,-2.6,11.9,-1.16,0.39999998,-1.12,-1.16,0.39999998,-1.12,1,Lying,4
2019-01-21,17:14:48,-9.63,-4.0299997,10.349999,-1.16,0.39999998,-1.12,-1.16,0.39999998,-1.12,1,Lying,4
2019-01-21,17:14:48,-9.63,-4.0299997,10.349999,-0.84999996,1.9699999,-0.64,-0.84999996,1.9699999,-0.64,1,Lying,4
2019-01-21,17:14:48,-7.0899997,-2.52,7.6199994,-0.84999996,1.9699999,-0.64,-0.84999996,1.9699999,-0.64,1,Lying,4
2019-01-21,17:14:48,-7.0899997,-2.52,7.6199994,0.09999999400000001,0.57,0.17,0.09999999400000001,0.57,0.17,1,Lying,4
2019-01-21,17:14:48,-4.1499996,-1.14,6.2499995,0.09999999400000001,0.57,0.17,0.09999999400000001,0.57,0.17,1,Lying,4
2019-01-21,17:14:48,-4.1499996,-1.14,6.2499995,0.01,-0.41,0.26,0.01,-0.41,0.26,1,Lying,4
2019-01-21,17:14:48,-3.1299999,-1.49,7.3799996,0.01,-0.41,0.26,0.01,-0.41,0.26,1,Lying,4
2019-01-21,17:14:48,-3.1299999,-1.49,7.3799996,-0.53999996,-0.34,0.13,-0.53999996,-0.34,0.13,1,Lying,4
2019-01-21,17:14:48,-3.8799998999999996,-3.06,9.469999000000001,-0.53999996,-0.34,0.13,-0.53999996,-0.34,0.13,1,Lying,4
2019-01-21,17:14:48,-3.8799998999999996,-3.06,9.469999000000001,-0.79999995,-0.06,-0.02,-0.79999995,-0.06,-0.02,1,Lying,4
2019-01-21,17:14:48,-5.0799994,-2.75,8.16,-0.79999995,-0.06,-0.02,-0.79999995,-0.06,-0.02,1,Lying,4
2019-01-21,17:14:48,-5.0799994,-2.75,8.16,0.0,0.16,-0.03,0.0,0.16,-0.03,1,Lying,4
2019-01-21,17:14:48,-4.5199995,-2.27,7.2499994999999995,0.0,0.16,-0.03,0.0,0.16,-0.03,1,Lying,4
2019-01-21,17:14:48,-4.5199995,-2.27,7.2499994999999995,0.12,0.17999999,0.06,0.12,0.17999999,0.06,1,Lying,4
2019-01-21,17:14:48,-4.47,-2.58,8.309999000000001,0.12,0.17999999,0.06,0.12,0.17999999,0.06,1,Lying,4
2019-01-21,17:14:48,-4.47,-2.58,8.309999000000001,-0.08,0.12,-0.03,-0.08,0.12,-0.03,1,Lying,4
2019-01-21,17:14:48,-4.8799996,-2.74,8.259999,-0.08,0.12,-0.03,-0.08,0.12,-0.03,1,Lying,4
2019-01-21,17:14:48,-4.8799996,-2.74,8.259999,-0.04,0.22,-0.01,-0.04,0.22,-0.01,1,Lying,4
2019-01-21,17:14:49,-4.4199996,-2.55,7.9699993000000005,-0.04,0.22,-0.01,-0.04,0.22,-0.01,1,Lying,4
2019-01-21,17:14:49,-4.4199996,-2.55,7.9699993000000005,0.0,0.25,0.0,0.0,0.25,0.0,1,Lying,4
2019-01-21,17:14:49,-4.93,-2.59,7.8799996,0.0,0.25,0.0,0.0,0.25,0.0,1,Lying,4
2019-01-21,17:14:49,-4.93,-2.59,7.8799996,-0.01,0.45,0.0,-0.01,0.45,0.0,1,Lying,4
2019-01-21,17:14:49,-5.6899996,-2.6799998,7.8299994,-0.01,0.45,0.0,-0.01,0.45,0.0,1,Lying,4
2019-01-21,17:14:49,-5.6899996,-2.6799998,7.8299994,0.0,0.53999996,0.01,0.0,0.53999996,0.01,1,Lying,4
2019-01-21,17:14:49,-5.7699995,-2.6,7.599999400000001,0.0,0.53999996,0.01,0.0,0.53999996,0.01,1,Lying,4
2019-01-21,17:14:49,-5.7699995,-2.6,7.599999400000001,0.089999996,0.26,0.0,0.089999996,0.26,0.0,1,Lying,4
2019-01-21,17:14:49,-5.43,-2.38,7.3699994,0.089999996,0.26,0.0,0.089999996,0.26,0.0,1,Lying,4
2019-01-21,17:14:49,-5.43,-2.38,7.3699994,0.089999996,0.14,0.01,0.089999996,0.14,0.01,1,Lying,4
2019-01-21,17:14:49,-5.4399996,-2.5,7.5899997,0.089999996,0.14,0.01,0.089999996,0.14,0.01,1,Lying,4
